rt,trial_type,trial_index,time_elapsed,responses,name,key_press,is_stimulus,stimulus,stimulus_block,stimulus_side,time_post_trial,is_fullscreen,correct,trial_began,block,sub_block
97279.0,instructions,0,97279,,,,,,,,,,,,,
8222.0,survey-multi-choice,1,105503,"{""Q0"":""אישה"",""Q1"":""ימין"",""Q2"":""עברית""}",,,,,,,,,,,,
10271.0,survey-text,2,115775,"{""Q0"":""20"",""Q1"":""37""}",,,,,,,,,,,,
6368.0,survey-multi-choice,3,122143,"{""Q0"":""לא""}",,,,,,,,,,,,
4972.0,survey-likert,4,127116,"{""Q0"":3}",attention_2,,,,,,,,,,,
11159.0,instructions,5,138275,,,,,,,,,,,,,
,image-cpt,6,141916,,,,False,,,,,,,,,
,image-cpt,7,145551,,,,False,,,,,,,,,
,image-cpt,8,148200,,,,False,,,,,,,,,
476.0,image-cpt,9,150816,,,32,True,,,,,,,,,
,image-cpt,10,152966,,,,False,,,,,,,,,
,image-cpt,11,156100,,,,False,,,,,,,,,
287.0,image-cpt,12,159233,,,32,True,,,,,,,,,
466.0,image-cpt,13,161382,,,32,True,,,,,,,,,
525.0,image-cpt,14,164032,,,32,True,,,,,,,,,
,image-cpt,15,166182,,,,False,,,,,,,,,
,image-cpt,16,169816,,,,False,,,,,,,,,
,image-cpt,17,170848,,,,False,,,,,,,,,
,image-cpt,18,173498,,,,False,,,,,,,,,
,image-cpt,19,176633,,,,False,,,,,,,,,
,image-cpt,20,179766,,,,False,,,,,,,,,
5413.0,instructions,21,185179,,,,,,,,,,,,,
,image-cpt,22,188828,,,,False,,,,,,,,,
,image-cpt,23,191463,,,,False,,,,,,,,,
,image-cpt,24,193595,,,,False,,,,,,,,,
,image-cpt,25,197229,,,,False,,,,,,,,,
359.0,image-cpt,26,200378,,,32,True,,,,,,,,,
,image-cpt,27,202528,,,,False,,,,,,,,,
,image-cpt,28,206178,,,,False,,,,,,,,,
,image-cpt,29,208828,,,,False,,,,,,,,,
,image-cpt,30,210978,,,,False,,,,,,,,,
,image-cpt,31,213128,,,,False,,,,,,,,,
,image-cpt,32,216778,,,,False,,,,,,,,,
986.0,image-cpt,33,219428,,,32,True,,,,,,,,,
,image-cpt,34,221578,,,,False,,,,,,,,,
602.0,image-cpt,35,224728,,,32,True,,,,,,,,,
,image-cpt,36,227377,,,,False,,,,,,,,,
690.0,image-cpt,37,229527,,,32,True,,,,,,,,,
,image-cpt,38,231663,,,,False,,,,,,,,,
,image-cpt,39,234311,,,,False,,,,,,,,,
,image-cpt,40,236460,,,,False,,,,,,,,,
,image-cpt,41,240110,,,,False,,,,,,,,,
,image-cpt,42,242760,,,,False,,,,,,,,,
,image-cpt,43,245410,,,,False,,,,,,,,,
,image-cpt,44,248060,,,,False,,,,,,,,,
,image-cpt,45,250210,,,,False,,,,,,,,,
1298.0,image-cpt,46,252859,,,32,True,,,,,,,,,
,image-cpt,47,256493,,,,False,,,,,,,,,
,image-cpt,48,258643,,,,False,,,,,,,,,
513.0,image-cpt,49,261277,,,32,True,,,,,,,,,
,image-cpt,50,263926,,,,False,,,,,,,,,
,image-cpt,51,267575,,,,False,,,,,,,,,
,image-cpt,52,270225,,,,False,,,,,,,,,
,image-cpt,53,273376,,,,False,,,,,,,,,
,image-cpt,54,276026,,,,False,,,,,,,,,
,image-cpt,55,278675,,,,False,,,,,,,,,
1313.0,image-cpt,56,280825,,,32,False,,,,,,,,,
,image-cpt,57,282975,,,,False,,,,,,,,,
948.0,image-cpt,58,285625,,,32,True,,,,,,,,,
,image-cpt,59,288775,,,,False,,,,,,,,,
493.0,image-cpt,60,290909,,,32,True,,,,,,,,,
454.0,image-cpt,61,293558,,,32,True,,,,,,,,,
,image-cpt,62,296708,,,,False,,,,,,,,,
,image-cpt,63,298858,,,,False,,,,,,,,,
,image-cpt,64,302008,,,,False,,,,,,,,,
,image-cpt,65,304141,,,,False,,,,,,,,,
,image-cpt,66,306291,,,,False,,,,,,,,,
,image-cpt,67,307307,,,,False,,,,,,,,,
391.0,image-cpt,68,310457,,,32,True,,,,,,,,,
,image-cpt,69,313107,,,,False,,,,,,,,,
,image-cpt,70,316258,,,,False,,,,,,,,,
,image-cpt,71,318407,,,,False,,,,,,,,,
749.0,image-cpt,72,322057,,,32,True,,,,,,,,,
747.0,image-cpt,73,324707,,,32,True,,,,,,,,,
672.0,image-cpt,74,328356,,,32,True,,,,,,,,,
783.0,image-cpt,75,332007,,,32,True,,,,,,,,,
685.0,image-cpt,76,335156,,,32,True,,,,,,,,,
,image-cpt,77,338306,,,,False,,,,,,,,,
,image-cpt,78,341940,,,,False,,,,,,,,,
,image-cpt,79,345574,,,,False,,,,,,,,,
782.0,image-cpt,80,347722,,,32,True,,,,,,,,,
,image-cpt,81,349873,,,,False,,,,,,,,,
,image-cpt,82,353006,,,,False,,,,,,,,,
900.0,image-cpt,83,356156,,,32,True,,,,,,,,,
,image-cpt,84,358305,,,,False,,,,,,,,,
899.0,image-cpt,85,361455,,,32,True,,,,,,,,,
,image-cpt,86,365105,,,,False,,,,,,,,,
,image-cpt,87,367255,,,,False,,,,,,,,,
492.0,image-cpt,88,369905,,,32,True,,,,,,,,,
,image-cpt,89,373055,,,,False,,,,,,,,,
,image-cpt,90,376705,,,,False,,,,,,,,,
547.0,image-cpt,91,380355,,,32,True,,,,,,,,,
,image-cpt,92,384004,,,,False,,,,,,,,,
991.0,image-cpt,93,387638,,,32,True,,,,,,,,,
831.0,image-cpt,94,391287,,,32,True,,,,,,,,,
,image-cpt,95,394937,,,,False,,,,,,,,,
,image-cpt,96,397088,,,,False,,,,,,,,,
581.0,image-cpt,97,400222,,,32,True,,,,,,,,,
,image-cpt,98,402871,,,,False,,,,,,,,,
493.0,image-cpt,99,405020,,,32,True,,,,,,,,,
,image-cpt,100,408654,,,,False,,,,,,,,,
855.0,image-cpt,101,410804,,,32,True,,,,,,,,,
,image-cpt,102,412953,,,,False,,,,,,,,,
987.0,image-cpt,103,416103,,,32,True,,,,,,,,,
,image-cpt,104,419238,,,,False,,,,,,,,,
,image-cpt,105,422387,,,,False,,,,,,,,,
,image-cpt,106,425036,,,,False,,,,,,,,,
,image-cpt,107,428669,,,,False,,,,,,,,,
,image-cpt,108,431819,,,,False,,,,,,,,,
809.0,image-cpt,109,433969,,,32,True,,,,,,,,,
,image-cpt,110,437619,,,,False,,,,,,,,,
882.0,image-cpt,111,441268,,,32,True,,,,,,,,,
,image-cpt,112,443902,,,,False,,,,,,,,,
950.0,image-cpt,113,447052,,,32,True,,,,,,,,,
760.0,image-cpt,114,450684,,,32,True,,,,,,,,,
,image-cpt,115,454335,,,,False,,,,,,,,,
,image-cpt,116,456985,,,,False,,,,,,,,,
1084.0,image-cpt,117,459135,,,32,True,,,,,,,,,
,image-cpt,118,462784,,,,False,,,,,,,,,
,image-cpt,119,465935,,,,False,,,,,,,,,
,image-cpt,120,468084,,,,False,,,,,,,,,
,image-cpt,121,471234,,,,False,,,,,,,,,
,image-cpt,122,473384,,,,False,,,,,,,,,
,image-cpt,123,475519,,,,False,,,,,,,,,
,image-cpt,124,478152,,,,False,,,,,,,,,
,image-cpt,125,481284,,,,False,,,,,,,,,
1121.0,image-cpt,126,483918,,,32,True,,,,,,,,,
1079.0,image-cpt,127,486067,,,32,True,,,,,,,,,
,image-cpt,128,488217,,,,False,,,,,,,,,
,image-cpt,129,489250,,,,False,,,,,,,,,
,image-cpt,130,491400,,,,False,,,,,,,,,
,image-cpt,131,494049,,,,False,,,,,,,,,
995.0,image-cpt,132,496183,,,32,True,,,,,,,,,
,image-cpt,133,499832,,,,False,,,,,,,,,
,image-cpt,134,503483,,,,False,,,,,,,,,
,image-cpt,135,506133,,,,False,,,,,,,,,
,image-cpt,136,508783,,,,True,,,,,,,,,
,image-cpt,137,510933,,,,False,,,,,,,,,
,image-cpt,138,514083,,,,False,,,,,,,,,
,image-cpt,139,516733,,,,False,,,,,,,,,
,image-cpt,140,519366,,,,False,,,,,,,,,
1006.0,image-cpt,141,522515,,,32,True,,,,,,,,,
,image-cpt,142,526150,,,,False,,,,,,,,,
,image-cpt,143,528798,,,,False,,,,,,,,,
,image-cpt,144,531948,,,,False,,,,,,,,,
,image-cpt,145,535582,,,,False,,,,,,,,,
,image-cpt,146,538232,,,,False,,,,,,,,,
,image-cpt,147,541366,,,,False,,,,,,,,,
,image-cpt,148,544514,,,,False,,,,,,,,,
963.0,image-cpt,149,548164,,,32,True,,,,,,,,,
,image-cpt,150,550797,,,,False,,,,,,,,,
,image-cpt,151,553447,,,,False,,,,,,,,,
,image-cpt,152,555581,,,,False,,,,,,,,,
,image-cpt,153,558214,,,,True,,,,,,,,,
,image-cpt,154,560363,,,,False,,,,,,,,,
1113.0,image-cpt,155,562513,,,32,True,,,,,,,,,
,image-cpt,156,565663,,,,False,,,,,,,,,
,image-cpt,157,567797,,,,False,,,,,,,,,
,image-cpt,158,570446,,,,False,,,,,,,,,
,image-cpt,159,573596,,,,False,,,,,,,,,
520.0,image-cpt,160,577230,,,32,True,,,,,,,,,
534.0,image-cpt,161,580379,,,32,True,,,,,,,,,
921.0,image-cpt,162,583530,,,32,True,,,,,,,,,
,image-cpt,163,587178,,,,False,,,,,,,,,
,image-cpt,164,589328,,,,False,,,,,,,,,
,image-cpt,165,591478,,,,False,,,,,,,,,
,image-cpt,166,595128,,,,False,,,,,,,,,
1116.0,image-cpt,167,597262,,,32,True,,,,,,,,,
,image-cpt,168,599411,,,,False,,,,,,,,,
,image-cpt,169,602045,,,,False,,,,,,,,,
,image-cpt,170,605195,,,,False,,,,,,,,,
937.0,image-cpt,171,608344,,,32,True,,,,,,,,,
,image-cpt,172,610494,,,,False,,,,,,,,,
,image-cpt,173,613644,,,,False,,,,,,,,,
,image-cpt,174,616294,,,,False,,,,,,,,,
,image-cpt,175,619443,,,,False,,,,,,,,,
,image-cpt,176,622077,,,,False,,,,,,,,,
,image-cpt,177,624227,,,,False,,,,,,,,,
943.0,image-cpt,178,627876,,,32,True,,,,,,,,,
1103.0,image-cpt,179,630526,,,32,True,,,,,,,,,
,image-cpt,180,633661,,,,False,,,,,,,,,
,image-cpt,181,636294,,,,False,,,,,,,,,
,image-cpt,182,638943,,,,False,,,,,,,,,
,image-cpt,183,641077,,,,False,,,,,,,,,
,image-cpt,184,644711,,,,False,,,,,,,,,
893.0,image-cpt,185,648359,,,32,True,,,,,,,,,
1004.0,image-cpt,186,651492,,,32,True,,,,,,,,,
,image-cpt,187,654125,,,,False,,,,,,,,,
,image-cpt,188,657776,,,,False,,,,,,,,,
964.0,image-cpt,189,660425,,,32,True,,,,,,,,,
842.0,image-cpt,190,664058,,,32,True,,,,,,,,,
,image-cpt,191,667708,,,,False,,,,,,,,,
1127.0,image-cpt,192,671358,,,32,True,,,,,,,,,
,image-cpt,193,675008,,,,False,,,,,,,,,
,image-cpt,194,677142,,,,False,,,,,,,,,
,image-cpt,195,679791,,,,True,,,,,,,,,
,image-cpt,196,683441,,,,False,,,,,,,,,
,image-cpt,197,687091,,,,False,,,,,,,,,
,image-cpt,198,689740,,,,False,,,,,,,,,
,image-cpt,199,691890,,,,False,,,,,,,,,
,image-cpt,200,695041,,,,False,,,,,,,,,
,image-cpt,201,697690,,,,False,,,,,,,,,
,image-cpt,202,699840,,,,False,,,,,,,,,
,image-cpt,203,703490,,,,False,,,,,,,,,
962.0,image-cpt,204,705640,,,32,True,,,,,,,,,
1052.0,image-cpt,205,708790,,,32,True,,,,,,,,,
,image-cpt,206,712439,,,,False,,,,,,,,,
877.0,image-cpt,207,714573,,,32,True,,,,,,,,,
,image-cpt,208,717723,,,,False,,,,,,,,,
,image-cpt,209,721357,,,,False,,,,,,,,,
631.0,image-cpt,210,724506,,,32,True,,,,,,,,,
,image-cpt,211,728155,,,,False,,,,,,,,,
,image-cpt,212,730306,,,,False,,,,,,,,,
,image-cpt,213,733955,,,,False,,,,,,,,,
,image-cpt,214,737589,,,,False,,,,,,,,,
,image-cpt,215,740238,,,,False,,,,,,,,,
,image-cpt,216,743888,,,,False,,,,,,,,,
,image-cpt,217,747538,,,,False,,,,,,,,,
,image-cpt,218,750688,,,,False,,,,,,,,,
932.0,image-cpt,219,754338,,,32,True,,,,,,,,,
,image-cpt,220,757487,,,,False,,,,,,,,,
932.0,image-cpt,221,759621,,,32,True,,,,,,,,,
,image-cpt,222,762271,,,,False,,,,,,,,,
,image-cpt,223,764920,,,,False,,,,,,,,,
,image-cpt,224,768071,,,,False,,,,,,,,,
,image-cpt,225,771720,,,,False,,,,,,,,,
,image-cpt,226,774870,,,,False,,,,,,,,,
,image-cpt,227,778020,,,,False,,,,,,,,,
735.0,image-cpt,228,781670,,,32,True,,,,,,,,,
,image-cpt,229,784819,,,,False,,,,,,,,,
,image-cpt,230,787453,,,,False,,,,,,,,,
470.0,image-cpt,231,790603,,,32,True,,,,,,,,,
425.0,image-cpt,232,794237,,,32,True,,,,,,,,,
,image-cpt,233,797386,,,,False,,,,,,,,,
570.0,image-cpt,234,799537,,,32,True,,,,,,,,,
,image-cpt,235,802687,,,,False,,,,,,,,,
965.0,image-cpt,236,804836,,,32,True,,,,,,,,,
625.0,image-cpt,237,807469,,,32,True,,,,,,,,,
,image-cpt,238,809619,,,,False,,,,,,,,,
,image-cpt,239,813254,,,,False,,,,,,,,,
,image-cpt,240,815902,,,,False,,,,,,,,,
,image-cpt,241,818552,,,,False,,,,,,,,,
,image-cpt,242,822202,,,,False,,,,,,,,,
842.0,image-cpt,243,824352,,,32,True,,,,,,,,,
,image-cpt,244,827485,,,,False,,,,,,,,,
856.0,image-cpt,245,829635,,,32,True,,,,,,,,,
801.0,image-cpt,246,833285,,,32,True,,,,,,,,,
,image-cpt,247,836435,,,,False,,,,,,,,,
834.0,image-cpt,248,840085,,,32,True,,,,,,,,,
848.0,image-cpt,249,843235,,,32,True,,,,,,,,,
,image-cpt,250,846385,,,,False,,,,,,,,,
,image-cpt,251,850034,,,,False,,,,,,,,,
,image-cpt,252,852184,,,,True,,,,,,,,,
1052.0,image-cpt,253,855834,,,32,True,,,,,,,,,
1466.0,image-cpt,254,858984,,,32,True,,,,,,,,,
,image-cpt,255,861634,,,,False,,,,,,,,,
,image-cpt,256,864783,,,,False,,,,,,,,,
,image-cpt,257,868433,,,,False,,,,,,,,,
,image-cpt,258,870583,,,,False,,,,,,,,,
525.0,image-cpt,259,873233,,,32,True,,,,,,,,,
1171.0,image-cpt,260,875383,,,32,True,,,,,,,,,
958.0,image-cpt,261,879033,,,32,True,,,,,,,,,
,image-cpt,262,882183,,,,False,,,,,,,,,
,image-cpt,263,884833,,,,False,,,,,,,,,
,image-cpt,264,887482,,,,False,,,,,,,,,
,image-cpt,265,889633,,,,False,,,,,,,,,
1012.0,image-cpt,266,893282,,,32,True,,,,,,,,,
1266.0,image-cpt,267,896932,,,32,True,,,,,,,,,
,image-cpt,268,899566,,,,False,,,,,,,,,
903.0,image-cpt,269,902716,,,32,True,,,,,,,,,
1033.0,image-cpt,270,905349,,,32,True,,,,,,,,,
,image-cpt,271,907998,,,,False,,,,,,,,,
,image-cpt,272,910148,,,,False,,,,,,,,,
,image-cpt,273,912298,,,,False,,,,,,,,,
985.0,image-cpt,274,915948,,,32,True,,,,,,,,,
,image-cpt,275,919098,,,,False,,,,,,,,,
,image-cpt,276,921731,,,,False,,,,,,,,,
,image-cpt,277,925364,,,,False,,,,,,,,,
,image-cpt,278,927514,,,,False,,,,,,,,,
,image-cpt,279,929630,,,,False,,,,,,,,,
,image-cpt,280,932764,,,,False,,,,,,,,,
569.0,image-cpt,281,935397,,,32,True,,,,,,,,,
,image-cpt,282,938047,,,,False,,,,,,,,,
,image-cpt,283,941181,,,,False,,,,,,,,,
,image-cpt,284,944330,,,,False,,,,,,,,,
,image-cpt,285,946480,,,,False,,,,,,,,,
,image-cpt,286,948613,,,,False,,,,,,,,,
,image-cpt,287,950763,,,,False,,,,,,,,,
,image-cpt,288,953913,,,,False,,,,,,,,,
,image-cpt,289,956563,,,,False,,,,,,,,,
,image-cpt,290,959713,,,,False,,,,,,,,,
,image-cpt,291,962863,,,,False,,,,,,,,,
,image-cpt,292,965013,,,,False,,,,,,,,,
1280.0,image-cpt,293,968163,,,32,True,,,,,,,,,
,image-cpt,294,971812,,,,False,,,,,,,,,
1233.0,image-cpt,295,975446,,,32,True,,,,,,,,,
1135.0,image-cpt,296,979096,,,32,True,,,,,,,,,
,image-cpt,297,981745,,,,False,,,,,,,,,
,image-cpt,298,984895,,,,False,,,,,,,,,
,image-cpt,299,987029,,,,False,,,,,,,,,
,image-cpt,300,990678,,,,False,,,,,,,,,
1023.0,image-cpt,301,993328,,,32,True,,,,,,,,,
981.0,image-cpt,302,995461,,,32,True,,,,,,,,,
991.0,image-cpt,303,997595,,,32,True,,,,,,,,,
826.0,image-cpt,304,1001244,,,32,True,,,,,,,,,
,image-cpt,305,1003894,,,,False,,,,,,,,,
,image-cpt,306,1006544,,,,False,,,,,,,,,
804.0,image-cpt,307,1008694,,,32,True,,,,,,,,,
,image-cpt,308,1011344,,,,False,,,,,,,,,
,image-cpt,309,1014477,,,,False,,,,,,,,,
,image-cpt,310,1017627,,,,False,,,,,,,,,
,image-cpt,311,1020277,,,,False,,,,,,,,,
1008.0,image-cpt,312,1022427,,,32,True,,,,,,,,,
,image-cpt,313,1025076,,,,False,,,,,,,,,
,image-cpt,314,1028727,,,,False,,,,,,,,,
,image-cpt,315,1031876,,,,False,,,,,,,,,
,image-cpt,316,1034511,,,,True,,,,,,,,,
869.0,image-cpt,317,1037159,,,32,True,,,,,,,,,
,image-cpt,318,1039294,,,,True,,,,,,,,,
983.0,image-cpt,319,1041426,,,32,True,,,,,,,,,
,image-cpt,320,1045076,,,,False,,,,,,,,,
,image-cpt,321,1047710,,,,False,,,,,,,,,
,image-cpt,322,1050359,,,,False,,,,,,,,,
,image-cpt,323,1053009,,,,False,,,,,,,,,
,image-cpt,324,1056159,,,,False,,,,,,,,,
1062.0,image-cpt,325,1059808,,,32,True,,,,,,,,,
,image-cpt,326,1062942,,,,False,,,,,,,,,
,image-cpt,327,1065592,,,,False,,,,,,,,,
,image-cpt,328,1069241,,,,False,,,,,,,,,
,image-cpt,329,1072391,,,,False,,,,,,,,,
,image-cpt,330,1074524,,,,False,,,,,,,,,
,image-cpt,331,1078158,,,,False,,,,,,,,,
,image-cpt,332,1080308,,,,False,,,,,,,,,
,image-cpt,333,1083458,,,,False,,,,,,,,,
,image-cpt,334,1086608,,,,False,,,,,,,,,
,image-cpt,335,1089741,,,,False,,,,,,,,,
,image-cpt,336,1091890,,,,False,,,,,,,,,
,image-cpt,337,1095040,,,,False,,,,,,,,,
,image-cpt,338,1098174,,,,False,,,,,,,,,
,image-cpt,339,1100823,,,,False,,,,,,,,,
,image-cpt,340,1103956,,,,False,,,,,,,,,
881.0,image-cpt,341,1106606,,,32,True,,,,,,,,,
46742.0,instructions,342,1153348,,,,,,,,,,,,,
6422.299999952316,bRMS,343,1160150,,,P,,images/rms/f42887_e_001.jpg,training,0.0,400.0,False,True,0.0,63.0,63.0
1498.0999999046326,bRMS,344,1162437,,,P,,images/rms/f42887_e_001.jpg,training,0.0,400.0,False,True,0.0,63.0,63.0
1224.7000000476835,bRMS,345,1164454,,,Q,,images/rms/f42887_e_001.jpg,training,1.0,400.0,False,True,0.0,63.0,63.0
969.5,bRMS,346,1166198,,,P,,images/rms/f42887_e_001.jpg,training,0.0,400.0,False,True,0.0,63.0,63.0
1796.0,bRMS,347,1168781,,,P,,images/rms/f42887_e_001.jpg,training,0.0,400.0,False,True,0.0,63.0,63.0
1513.0,bRMS,348,1171086,,,P,,images/rms/f42887_e_001.jpg,training,0.0,400.0,False,True,0.0,63.0,63.0
992.5,bRMS,349,1172854,,,Q,,images/rms/f42887_e_001.jpg,training,1.0,400.0,False,True,0.0,63.0,63.0
1191.7999999523165,bRMS,350,1174853,,,Q,,images/rms/f42887_e_001.jpg,training,1.0,400.0,False,True,0.0,63.0,63.0
863.5,bRMS,351,1176501,,,Q,,images/rms/f42887_e_001.jpg,training,1.0,400.0,False,True,0.0,63.0,63.0
697.0999999046326,bRMS,352,1177982,,,Q,,images/rms/f42887_e_001.jpg,training,1.0,400.0,False,True,0.0,63.0,63.0
1139.0999999046326,bRMS,353,1179901,,,P,,images/rms/f42887_e_001.jpg,training,0.0,400.0,False,True,0.0,63.0,63.0
577.0,bRMS,354,1181253,,,Q,,images/rms/f42887_e_001.jpg,training,1.0,400.0,False,True,0.0,63.0,63.0
873.5,bRMS,355,1182918,,,Q,,images/rms/f42887_e_001.jpg,training,1.0,400.0,False,True,0.0,63.0,63.0
570.3999998569489,bRMS,356,1184269,,,P,,images/rms/f42887_e_001.jpg,training,0.0,400.0,False,True,0.0,63.0,63.0
624.3999998569489,bRMS,357,1185670,,,Q,,images/rms/f42887_e_001.jpg,training,1.0,400.0,False,True,0.0,63.0,63.0
920.7000000476836,bRMS,358,1187382,,,Q,,images/rms/f42887_e_001.jpg,training,1.0,400.0,False,True,0.0,63.0,63.0
2795.0,instructions,359,1190589,,,,,,,,,,,,,
4474.099999904633,bRMS,360,1195430,,,Q,,images/rms/f42887_e_278_1.jpg,reversed,1.0,400.0,False,True,0.0,63.0,63.0
1152.2000000476835,bRMS,361,1197381,,,Q,,images/rms/f42887_e_252_1.jpg,reversed,1.0,400.0,False,True,0.0,63.0,63.0
4106.900000095367,bRMS,362,1202262,,,Q,,images/rms/f42887_e_295_1.jpg,reversed,1.0,400.0,False,True,0.0,63.0,63.0
6928.399999856949,bRMS,363,1209969,,,Q,,images/rms/f42887_e_293_1.jpg,reversed,1.0,400.0,False,True,0.0,63.0,63.0
2851.4000000953674,bRMS,364,1213584,,,P,,images/rms/f42887_e_121_1.jpg,reversed,0.0,400.0,False,True,0.0,63.0,63.0
2769.0,bRMS,365,1217125,,,Q,,images/rms/f42887_e_297_1.jpg,reversed,1.0,400.0,False,True,0.0,63.0,63.0
2227.200000047684,bRMS,366,1220150,,,P,,images/rms/f42887_e_289.jpg,main,0.0,400.0,False,True,0.0,63.0,63.0
3001.600000143051,bRMS,367,1223926,,,P,,images/rms/f42887_e_298_1.jpg,reversed,0.0,400.0,False,True,0.0,63.0,63.0
3120.200000047684,bRMS,368,1227814,,,P,,images/rms/f42887_e_001.jpg,main,0.0,400.0,False,True,0.0,63.0,63.0
1687.3000001907349,bRMS,369,1230278,,,Q,,images/rms/f42887_e_156.jpg,main,1.0,400.0,False,True,0.0,63.0,63.0
1485.5,bRMS,370,1232550,,,Q,,images/rms/f42887_e_156_1.jpg,reversed,1.0,400.0,False,True,0.0,63.0,63.0
1545.5,bRMS,371,1234866,,,Q,,images/rms/f42887_e_028.jpg,main,1.0,400.0,False,True,0.0,63.0,63.0
1249.5,bRMS,372,1236883,,,Q,,images/rms/f42887_e_296.jpg,main,1.0,400.0,False,True,0.0,63.0,63.0
1962.0,bRMS,373,1239618,,,P,,images/rms/f42887_e_202_1.jpg,reversed,0.0,400.0,False,True,0.0,63.0,63.0
1266.0,bRMS,374,1241662,,,P,,images/rms/f42887_e_202.jpg,main,0.0,400.0,False,True,0.0,63.0,63.0
1377.6000001430511,bRMS,375,1243813,,,P,,images/rms/f42887_e_001_1.jpg,reversed,0.0,400.0,False,True,0.0,63.0,63.0
2793.4000000953674,bRMS,376,1247382,,,P,,images/rms/f42887_e_259.jpg,main,0.0,400.0,False,True,0.0,63.0,63.0
2024.1000001430511,bRMS,377,1250182,,,Q,,images/rms/f42887_e_127.jpg,main,1.0,400.0,False,True,0.0,63.0,63.0
4458.600000143051,bRMS,378,1255413,,,Q,,images/rms/f42887_e_053.jpg,main,1.0,400.0,False,True,0.0,63.0,63.0
1720.2000000476835,bRMS,379,1257909,,,P,,images/rms/f42887_e_103_1.jpg,reversed,0.0,400.0,False,True,0.0,63.0,63.0
736.8999998569489,bRMS,380,1259430,,,Q,,images/rms/f42887_e_245.jpg,main,1.0,400.0,False,True,0.0,63.0,63.0
570.7000000476837,bRMS,381,1260774,,,P,,images/rms/f42887_e_180_1.jpg,reversed,0.0,400.0,False,True,0.0,63.0,63.0
1039.7999999523165,bRMS,382,1262582,,,Q,,images/rms/f42887_e_015.jpg,main,1.0,400.0,False,True,0.0,63.0,63.0
745.6000001430511,bRMS,383,1264094,,,P,,images/rms/f42887_e_064_1.jpg,reversed,0.0,400.0,False,True,0.0,63.0,63.0
1212.2000000476835,bRMS,384,1266094,,,P,,images/rms/f42887_e_140.jpg,main,0.0,400.0,False,True,0.0,63.0,63.0
1105.2000000476835,bRMS,385,1267982,,,P,,images/rms/f42887_e_121.jpg,main,0.0,400.0,False,True,0.0,63.0,63.0
1457.5,bRMS,386,1270214,,,Q,,images/rms/f42887_e_080_1.jpg,reversed,1.0,400.0,False,True,0.0,63.0,63.0
2824.700000047684,bRMS,387,1273814,,,Q,,images/rms/f42887_e_005.jpg,main,1.0,400.0,False,True,0.0,63.0,63.0
1016.1000001430511,bRMS,388,1275605,,,P,,images/rms/f42887_e_064.jpg,main,0.0,400.0,False,True,0.0,63.0,63.0
3040.200000047684,bRMS,389,1279430,,,P,,images/rms/f42887_e_127_1.jpg,reversed,0.0,400.0,False,True,0.0,63.0,63.0
1224.0,bRMS,390,1281429,,,Q,,images/rms/f42887_e_072.jpg,main,1.0,400.0,False,True,0.0,63.0,63.0
695.9000000953674,bRMS,391,1282899,,,P,,images/rms/f42887_e_298.jpg,main,0.0,400.0,False,True,0.0,63.0,63.0
650.2999999523163,bRMS,392,1284326,,,Q,,images/rms/f42887_e_258.jpg,main,1.0,400.0,False,True,0.0,63.0,63.0
3443.700000047684,bRMS,393,1288549,,,Q,,images/rms/f42887_e_161_1.jpg,reversed,1.0,400.0,False,True,0.0,63.0,63.0
3018.4000000953674,bRMS,394,1292358,,,P,,images/rms/f42887_e_241.jpg,main,0.0,400.0,False,True,0.0,63.0,63.0
3732.299999952316,bRMS,395,1296869,,,P,,images/rms/f42887_e_005_1.jpg,reversed,0.0,400.0,False,True,0.0,63.0,63.0
1602.8999998569489,bRMS,396,1299253,,,Q,,images/rms/f42887_e_245_1.jpg,reversed,1.0,400.0,False,True,0.0,63.0,63.0
994.7999999523164,bRMS,397,1301030,,,P,,images/rms/f42887_e_296_1.jpg,reversed,0.0,400.0,False,True,0.0,63.0,63.0
844.2999999523163,bRMS,398,1302646,,,Q,,images/rms/f42887_e_295.jpg,main,1.0,400.0,False,True,0.0,63.0,63.0
538.3000001907349,bRMS,399,1303957,,,P,,images/rms/f42887_e_241_1.jpg,reversed,0.0,400.0,False,True,0.0,63.0,63.0
896.8000001907349,bRMS,400,1305638,,,P,,images/rms/f42887_e_140_1.jpg,reversed,0.0,400.0,False,True,0.0,63.0,63.0
1618.3999998569489,bRMS,401,1308045,,,P,,images/rms/f42887_e_080.jpg,main,0.0,400.0,False,True,0.0,63.0,63.0
689.5,bRMS,402,1309510,,,Q,,images/rms/f42887_e_072_1.jpg,reversed,1.0,400.0,False,True,0.0,63.0,63.0
1712.5,bRMS,403,1312013,,,P,,images/rms/f42887_e_258_1.jpg,reversed,0.0,400.0,False,True,0.0,63.0,63.0
1600.7999999523165,bRMS,404,1314390,,,Q,,images/rms/f42887_e_297.jpg,main,1.0,400.0,False,True,0.0,63.0,63.0
929.2999999523164,bRMS,405,1316110,,,P,,images/rms/f42887_e_098.jpg,main,0.0,400.0,False,True,0.0,63.0,63.0
3578.9000000953674,bRMS,406,1320477,,,P,,images/rms/f42887_e_025_1.jpg,reversed,0.0,400.0,False,True,0.0,63.0,63.0
2868.0,bRMS,407,1324126,,,Q,,images/rms/f42887_e_259_1.jpg,reversed,1.0,400.0,False,True,0.0,63.0,63.0
3168.100000143051,bRMS,408,1328064,,,P,,images/rms/f42887_e_025.jpg,main,0.0,400.0,False,True,0.0,63.0,63.0
5733.900000095367,bRMS,409,1334574,,,P,,images/rms/f42887_e_015_1.jpg,reversed,0.0,400.0,False,True,0.0,63.0,63.0
6104.800000190735,bRMS,410,1341463,,,Q,,images/rms/f42887_e_293.jpg,main,1.0,400.0,False,True,0.0,63.0,63.0
3800.200000047684,bRMS,411,1346038,,,P,,images/rms/f42887_e_058.jpg,main,0.0,400.0,False,True,0.0,63.0,63.0
1763.2999999523165,bRMS,412,1348590,,,P,,images/rms/f42887_e_289_1.jpg,reversed,0.0,400.0,False,True,0.0,63.0,63.0
626.4000000953674,bRMS,413,1349990,,,Q,,images/rms/f42887_e_252.jpg,main,1.0,400.0,False,True,0.0,63.0,63.0
5521.700000047684,bRMS,414,1356293,,,Q,,images/rms/f42887_e_028_1.jpg,reversed,1.0,400.0,False,True,0.0,63.0,63.0
1065.0,bRMS,415,1358126,,,Q,,images/rms/f42887_e_098_1.jpg,reversed,1.0,400.0,False,True,0.0,63.0,63.0
1390.8000001907349,bRMS,416,1360294,,,P,,images/rms/f42887_e_161.jpg,main,0.0,400.0,False,True,0.0,63.0,63.0
3002.200000047684,bRMS,417,1364070,,,Q,,images/rms/f42887_e_053_1.jpg,reversed,1.0,400.0,False,True,0.0,63.0,63.0
1345.6999998092651,bRMS,418,1366198,,,Q,,images/rms/f42887_e_103.jpg,main,1.0,400.0,False,True,0.0,63.0,63.0
753.2000000476837,bRMS,419,1367742,,,Q,,images/rms/f42887_e_278.jpg,main,1.0,400.0,False,True,0.0,63.0,63.0
960.7000000476836,bRMS,420,1369494,,,P,,images/rms/f42887_e_058_1.jpg,reversed,0.0,400.0,False,True,0.0,63.0,63.0
761.8999998569489,bRMS,421,1371029,,,P,,images/rms/f42887_e_180.jpg,main,0.0,400.0,False,True,0.0,63.0,63.0
11607.0,instructions,422,1383045,,,,,,,,,,,,,
2053.7999999523163,bRMS,423,1385478,,,Q,,images/rms/f42887_e_121.jpg,control_main,1.0,400.0,False,True,0.0,63.0,63.0
347.2000000476837,bRMS,424,1386622,,,P,,images/rms/f42887_e_072.jpg,control_main,1.0,400.0,False,False,0.0,63.0,63.0
858.5,bRMS,425,1388262,,,P,,images/rms/f42887_e_245_1.jpg,control_reversed,0.0,400.0,False,True,0.0,63.0,63.0
1113.5,bRMS,426,1390150,,,P,,images/rms/f42887_e_156_1.jpg,control_reversed,0.0,400.0,False,True,0.0,63.0,63.0
545.0999999046326,bRMS,427,1391477,,,P,,images/rms/f42887_e_258.jpg,control_main,0.0,400.0,False,True,0.0,63.0,63.0
697.9000000953674,bRMS,428,1392950,,,Q,,images/rms/f42887_e_180.jpg,control_main,1.0,400.0,False,True,0.0,63.0,63.0
833.7000000476837,bRMS,429,1394561,,,Q,,images/rms/f42887_e_161.jpg,control_main,1.0,400.0,False,True,0.0,63.0,63.0
3777.5,bRMS,430,1399126,,,Q,,images/rms/f42887_e_298_1.jpg,control_reversed,1.0,400.0,False,True,0.0,63.0,63.0
904.9000000953674,bRMS,431,1400806,,,Q,,images/rms/f42887_e_259.jpg,control_main,1.0,400.0,False,True,0.0,63.0,63.0
1674.5999999046326,bRMS,432,1403253,,,P,,images/rms/f42887_e_064_1.jpg,control_reversed,0.0,400.0,False,True,0.0,63.0,63.0
944.4000000953674,bRMS,433,1404990,,,Q,,images/rms/f42887_e_258_1.jpg,control_reversed,1.0,400.0,False,True,0.0,63.0,63.0
753.0999999046326,bRMS,434,1406518,,,P,,images/rms/f42887_e_015.jpg,control_main,0.0,400.0,False,True,0.0,63.0,63.0
688.6000001430511,bRMS,435,1407974,,,Q,,images/rms/f42887_e_103.jpg,control_main,1.0,400.0,False,True,0.0,63.0,63.0
2102.599999904633,bRMS,436,1410853,,,Q,,images/rms/f42887_e_180_1.jpg,control_reversed,1.0,400.0,False,True,0.0,63.0,63.0
968.8999998569489,bRMS,437,1412592,,,P,,images/rms/f42887_e_202_1.jpg,control_reversed,0.0,400.0,False,True,0.0,63.0,63.0
1697.2999999523165,bRMS,438,1415053,,,Q,,images/rms/f42887_e_005.jpg,control_main,1.0,400.0,False,True,0.0,63.0,63.0
1303.5,bRMS,439,1417158,,,P,,images/rms/f42887_e_241.jpg,control_main,0.0,400.0,False,True,0.0,63.0,63.0
377.0,bRMS,440,1418309,,,Q,,images/rms/f42887_e_295.jpg,control_main,0.0,400.0,False,False,0.0,63.0,63.0
409.7999999523163,bRMS,441,1419510,,,P,,images/rms/f42887_e_121_1.jpg,control_reversed,0.0,400.0,False,True,0.0,63.0,63.0
1530.3000001907349,bRMS,442,1421814,,,P,,images/rms/f42887_e_259_1.jpg,control_reversed,0.0,400.0,False,True,0.0,63.0,63.0
1458.0,bRMS,443,1424054,,,P,,images/rms/f42887_e_293_1.jpg,control_reversed,0.0,400.0,False,True,0.0,63.0,63.0
922.0999999046326,bRMS,444,1425758,,,Q,,images/rms/f42887_e_072_1.jpg,control_reversed,1.0,400.0,False,True,0.0,63.0,63.0
561.0999999046326,bRMS,445,1427091,,,P,,images/rms/f42887_e_298.jpg,control_main,0.0,400.0,False,True,0.0,63.0,63.0
1488.8999998569489,bRMS,446,1429350,,,P,,images/rms/f42887_e_297_1.jpg,control_reversed,0.0,400.0,False,True,0.0,63.0,63.0
2459.2999999523163,bRMS,447,1432590,,,Q,,images/rms/f42887_e_161_1.jpg,control_reversed,1.0,400.0,False,True,0.0,63.0,63.0
6499.299999952316,bRMS,448,1439858,,,Q,,images/rms/f42887_e_103_1.jpg,control_reversed,1.0,400.0,False,True,0.0,63.0,63.0
4370.299999952316,bRMS,449,1444997,,,Q,,images/rms/f42887_e_127_1.jpg,control_reversed,1.0,400.0,False,True,0.0,63.0,63.0
1921.5999999046328,bRMS,450,1447702,,,Q,,images/rms/f42887_e_080.jpg,control_main,1.0,400.0,False,True,0.0,63.0,63.0
4497.799999952316,bRMS,451,1452981,,,P,,images/rms/f42887_e_241_1.jpg,control_reversed,0.0,400.0,False,True,0.0,63.0,63.0
1697.6000001430511,bRMS,452,1455457,,,Q,,images/rms/f42887_e_252.jpg,control_main,1.0,400.0,False,True,0.0,63.0,63.0
562.5,bRMS,453,1456790,,,P,,images/rms/f42887_e_202.jpg,control_main,0.0,400.0,False,True,0.0,63.0,63.0
2761.9000000953674,bRMS,454,1460324,,,P,,images/rms/f42887_e_140_1.jpg,control_reversed,0.0,400.0,False,True,0.0,63.0,63.0
841.2999999523163,bRMS,455,1461942,,,Q,,images/rms/f42887_e_058_1.jpg,control_reversed,1.0,400.0,False,True,0.0,63.0,63.0
841.7999999523163,bRMS,456,1463573,,,P,,images/rms/f42887_e_278.jpg,control_main,0.0,400.0,False,True,0.0,63.0,63.0
1578.2999999523165,bRMS,457,1465923,,,Q,,images/rms/f42887_e_001.jpg,control_main,1.0,400.0,False,True,0.0,63.0,63.0
1721.7000000476835,bRMS,458,1468421,,,Q,,images/rms/f42887_e_289_1.jpg,control_reversed,1.0,400.0,False,True,0.0,63.0,63.0
1369.8000001907349,bRMS,459,1470589,,,Q,,images/rms/f42887_e_245.jpg,control_main,1.0,400.0,False,True,0.0,63.0,63.0
1633.6999998092651,bRMS,460,1473006,,,P,,images/rms/f42887_e_028_1.jpg,control_reversed,0.0,400.0,False,True,0.0,63.0,63.0
3825.599999904633,bRMS,461,1477606,,,P,,images/rms/f42887_e_053.jpg,control_main,0.0,400.0,False,True,0.0,63.0,63.0
649.6999998092651,bRMS,462,1479038,,,Q,,images/rms/f42887_e_098.jpg,control_main,1.0,400.0,False,True,0.0,63.0,63.0
5009.200000047684,bRMS,463,1484822,,,P,,images/rms/f42887_e_025_1.jpg,control_reversed,0.0,400.0,False,True,0.0,63.0,63.0
6454.299999952316,bRMS,464,1492054,,,P,,images/rms/f42887_e_080_1.jpg,control_reversed,0.0,400.0,False,True,0.0,63.0,63.0
1192.7000000476835,bRMS,465,1494038,,,P,,images/rms/f42887_e_025.jpg,control_main,0.0,400.0,False,True,0.0,63.0,63.0
1034.0999999046326,bRMS,466,1495846,,,Q,,images/rms/f42887_e_296_1.jpg,control_reversed,1.0,400.0,False,True,0.0,63.0,63.0
1954.5999999046328,bRMS,467,1498566,,,P,,images/rms/f42887_e_005_1.jpg,control_reversed,0.0,400.0,False,True,0.0,63.0,63.0
4688.5,bRMS,468,1504054,,,P,,images/rms/f42887_e_297.jpg,control_main,0.0,400.0,False,True,0.0,63.0,63.0
6122.199999809265,bRMS,469,1510949,,,P,,images/rms/f42887_e_293.jpg,control_main,0.0,400.0,False,True,0.0,63.0,63.0
1673.7999999523165,bRMS,470,1513398,,,Q,,images/rms/f42887_e_028.jpg,control_main,1.0,400.0,False,True,0.0,63.0,63.0
1603.5,bRMS,471,1515806,,,P,,images/rms/f42887_e_058.jpg,control_main,0.0,400.0,False,True,0.0,63.0,63.0
2722.5,bRMS,472,1519318,,,P,,images/rms/f42887_e_127.jpg,control_main,0.0,400.0,False,True,0.0,63.0,63.0
1882.7999999523165,bRMS,473,1521971,,,P,,images/rms/f42887_e_295_1.jpg,control_reversed,0.0,400.0,False,True,0.0,63.0,63.0
1497.8999998569489,bRMS,474,1524255,,,Q,,images/rms/f42887_e_289.jpg,control_main,1.0,400.0,False,True,0.0,63.0,63.0
2033.3999998569489,bRMS,475,1527062,,,P,,images/rms/f42887_e_252_1.jpg,control_reversed,0.0,400.0,False,True,0.0,63.0,63.0
641.7999999523163,bRMS,476,1528486,,,P,,images/rms/f42887_e_296.jpg,control_main,0.0,400.0,False,True,0.0,63.0,63.0
2025.0,bRMS,477,1531286,,,Q,,images/rms/f42887_e_098_1.jpg,control_reversed,1.0,400.0,False,True,0.0,63.0,63.0
729.6000001430511,bRMS,478,1532797,,,Q,,images/rms/f42887_e_064.jpg,control_main,1.0,400.0,False,True,0.0,63.0,63.0
2586.399999856949,bRMS,479,1536166,,,P,,images/rms/f42887_e_278_1.jpg,control_reversed,0.0,400.0,False,True,0.0,63.0,63.0
-1.0,bRMS,480,1546918,,,-1,,images/rms/f42887_e_053_1.jpg,control_reversed,0.0,400.0,False,False,0.0,63.0,63.0
5032.0,bRMS,481,1552734,,,P,,images/rms/f42887_e_001_1.jpg,control_reversed,0.0,400.0,False,True,0.0,63.0,63.0
1585.7999999523165,bRMS,482,1555093,,,P,,images/rms/f42887_e_140.jpg,control_main,0.0,400.0,False,True,0.0,63.0,63.0
5587.899999856949,bRMS,483,1561462,,,Q,,images/rms/f42887_e_015_1.jpg,control_reversed,1.0,400.0,False,True,0.0,63.0,63.0
1601.5999999046326,bRMS,484,1563853,,,Q,,images/rms/f42887_e_156.jpg,control_main,1.0,400.0,False,True,0.0,63.0,63.0
5712.0,instructions,485,1569973,,,,,,,,,,,,,
24807.0,survey-likert,486,1594782,"{""Q0"":0,""Q1"":3,""Q2"":3}",ASRS_1_3,,,,,,,,,,,
12863.0,survey-likert,487,1607646,"{""Q0"":2,""Q1"":2,""Q2"":2}",ASRS_2_9,,,,,,,,,,,
12623.0,survey-likert,488,1620269,"{""Q0"":3,""Q1"":3,""Q2"":1}",ASRS_2_6,,,,,,,,,,,
17255.0,survey-likert,489,1637525,"{""Q0"":1,""Q1"":2,""Q2"":2}",ASRS_2_0,,,,,,,,,,,
21183.0,survey-likert,490,1658709,"{""Q0"":3,""Q1"":3,""Q2"":1}",ASRS_1_0,,,,,,,,,,,
12671.0,survey-likert,491,1671381,"{""Q0"":2,""Q1"":3,""Q2"":1}",ASRS_2_3,,,,,,,,,,,
6415.0,survey-likert,492,1677797,"{""Q0"":3}",LAST_1,,,,,,,,,,,
2623.0,survey-multi-choice,493,1680421,"{""Q0"":""לא""}",,,,,,,,,,,,
1215.0,survey-text,494,1681637,"{""Q0"":""""}",,,,,,,,,,,,
5264.0,survey-likert,495,1686901,"{""Q0"":4}",LAST_4,,,,,,,,,,,
1791.0,survey-multi-choice,496,1688693,"{""Q0"":""לא""}",,,,,,,,,,,,
1552.0,survey-text,497,1690245,"{""Q0"":""""}",,,,,,,,,,,,
5816.0,survey-likert,498,1696061,"{""Q0"":4}",DRIVE_1,,,,,,,,,,,
8367.0,survey-text,499,1704429,"{""Q0"":""0""}",,,,,,,,,,,,
4376.0,survey-text,500,1708805,"{""Q0"":""0""}",,,,,,,,,,,,
1024.0,instructions,501,1709829,,,,,,,,,,,,,
