rt,trial_type,trial_index,time_elapsed,responses,name,stimulus,stimulus_block,stimulus_side,key_press,time_post_trial,is_fullscreen,correct,trial_began,block,sub_block,is_stimulus
24197.0,instructions,0,24197,,,,,,,,,,,,,
5141.0,survey-multi-choice,1,29341,"{""Q0"":""אישה"",""Q1"":""ימין"",""Q2"":""עברית""}",,,,,,,,,,,,
4247.0,survey-text,2,33589,"{""Q0"":""23"",""Q1"":""29""}",,,,,,,,,,,,
2207.0,survey-multi-choice,3,35797,"{""Q0"":""כן""}",,,,,,,,,,,,
4807.0,survey-likert,4,40605,"{""Q0"":""""}",attention_2,,,,,,,,,,,
52303.0,instructions,5,92908,,,,,,,,,,,,,
2755.5,bRMS,6,96048,,,images/rms/f42887_e_001.jpg,training,0.0,P,400.0,False,True,0.0,63.0,63.0,
1701.5,bRMS,7,98544,,,images/rms/f42887_e_001.jpg,training,1.0,Q,400.0,False,True,0.0,63.0,63.0,
1872.2999999523165,bRMS,8,101193,,,images/rms/f42887_e_001.jpg,training,0.0,P,400.0,False,True,0.0,63.0,63.0,
1301.2999999523165,bRMS,9,103272,,,images/rms/f42887_e_001.jpg,training,0.0,P,400.0,False,True,0.0,63.0,63.0,
1422.7000000476835,bRMS,10,105488,,,images/rms/f42887_e_001.jpg,training,0.0,P,400.0,False,True,0.0,63.0,63.0,
870.4000000953674,bRMS,11,107144,,,images/rms/f42887_e_001.jpg,training,0.0,P,400.0,False,True,0.0,63.0,63.0,
1144.7999999523165,bRMS,12,109063,,,images/rms/f42887_e_001.jpg,training,1.0,Q,400.0,False,True,0.0,63.0,63.0,
977.5999999046326,bRMS,13,110823,,,images/rms/f42887_e_001.jpg,training,1.0,Q,400.0,False,True,0.0,63.0,63.0,
902.5999999046326,bRMS,14,112512,,,images/rms/f42887_e_001.jpg,training,1.0,Q,400.0,False,True,0.0,63.0,63.0,
639.5999999046326,bRMS,15,113928,,,images/rms/f42887_e_001.jpg,training,1.0,Q,400.0,False,True,0.0,63.0,63.0,
683.8999998569489,bRMS,16,115408,,,images/rms/f42887_e_001.jpg,training,0.0,P,400.0,False,True,0.0,63.0,63.0,
703.1000001430511,bRMS,17,116888,,,images/rms/f42887_e_001.jpg,training,0.0,P,400.0,False,True,0.0,63.0,63.0,
837.4000000953674,bRMS,18,118505,,,images/rms/f42887_e_001.jpg,training,0.0,P,400.0,False,True,0.0,63.0,63.0,
830.8000001907349,bRMS,19,120121,,,images/rms/f42887_e_001.jpg,training,0.0,P,400.0,False,True,0.0,63.0,63.0,
800.5999999046326,bRMS,20,121696,,,images/rms/f42887_e_001.jpg,training,1.0,Q,400.0,False,True,0.0,63.0,63.0,
859.5999999046326,bRMS,21,123344,,,images/rms/f42887_e_001.jpg,training,1.0,Q,400.0,False,True,0.0,63.0,63.0,
4124.0,instructions,22,127877,,,,,,,,,,,,,
824.2999999523163,bRMS,23,129072,,,images/rms/f42887_e_297.jpg,main,0.0,P,400.0,False,True,0.0,63.0,63.0,
644.2999999523163,bRMS,24,130505,,,images/rms/f42887_e_258.jpg,main,0.0,P,400.0,False,True,0.0,63.0,63.0,
856.2999999523163,bRMS,25,132136,,,images/rms/f42887_e_259.jpg,main,0.0,P,400.0,False,True,0.0,63.0,63.0,
927.4000000953674,bRMS,26,133845,,,images/rms/f42887_e_241_1.jpg,reversed,1.0,Q,400.0,False,True,0.0,63.0,63.0,
926.2000000476836,bRMS,27,135545,,,images/rms/f42887_e_259_1.jpg,reversed,1.0,Q,400.0,False,True,0.0,63.0,63.0,
845.2000000476837,bRMS,28,137176,,,images/rms/f42887_e_127_1.jpg,reversed,1.0,Q,400.0,False,True,0.0,63.0,63.0,
676.7000000476837,bRMS,29,138624,,,images/rms/f42887_e_103_1.jpg,reversed,0.0,P,400.0,False,True,0.0,63.0,63.0,
829.5,bRMS,30,140224,,,images/rms/f42887_e_161.jpg,main,1.0,Q,400.0,False,True,0.0,63.0,63.0,
817.5999999046326,bRMS,31,141824,,,images/rms/f42887_e_053_1.jpg,reversed,1.0,Q,400.0,False,True,0.0,63.0,63.0,
589.7999999523163,bRMS,32,143193,,,images/rms/f42887_e_298_1.jpg,reversed,1.0,Q,400.0,False,True,0.0,63.0,63.0,
1269.0,bRMS,33,145240,,,images/rms/f42887_e_202.jpg,main,0.0,P,400.0,False,True,0.0,63.0,63.0,
998.0999999046326,bRMS,34,147008,,,images/rms/f42887_e_140.jpg,main,0.0,P,400.0,False,True,0.0,63.0,63.0,
877.7000000476837,bRMS,35,148659,,,images/rms/f42887_e_080.jpg,main,0.0,P,400.0,False,True,0.0,63.0,63.0,
684.8000001907349,bRMS,36,150121,,,images/rms/f42887_e_072.jpg,main,1.0,Q,400.0,False,True,0.0,63.0,63.0,
845.4000000953674,bRMS,37,151752,,,images/rms/f42887_e_028.jpg,main,1.0,Q,400.0,False,True,0.0,63.0,63.0,
807.3999998569489,bRMS,38,153360,,,images/rms/f42887_e_245.jpg,main,0.0,P,400.0,False,True,0.0,63.0,63.0,
1008.2000000476836,bRMS,39,155153,,,images/rms/f42887_e_298.jpg,main,1.0,Q,400.0,False,True,0.0,63.0,63.0,
782.2999999523163,bRMS,40,156721,,,images/rms/f42887_e_001_1.jpg,reversed,1.0,Q,400.0,False,True,0.0,63.0,63.0,
751.2000000476837,bRMS,41,158257,,,images/rms/f42887_e_058_1.jpg,reversed,1.0,Q,400.0,False,True,0.0,63.0,63.0,
572.0999999046326,bRMS,42,159608,,,images/rms/f42887_e_293.jpg,main,0.0,P,400.0,False,True,0.0,63.0,63.0,
949.6000001430511,bRMS,43,161336,,,images/rms/f42887_e_015.jpg,main,1.0,Q,400.0,False,True,0.0,63.0,63.0,
661.0999999046326,bRMS,44,162775,,,images/rms/f42887_e_293_1.jpg,reversed,1.0,Q,400.0,False,True,0.0,63.0,63.0,
710.0999999046326,bRMS,45,164257,,,images/rms/f42887_e_180.jpg,main,0.0,P,400.0,False,True,0.0,63.0,63.0,
798.0,bRMS,46,165832,,,images/rms/f42887_e_278.jpg,main,1.0,Q,400.0,False,True,0.0,63.0,63.0,
959.7999999523164,bRMS,47,167577,,,images/rms/f42887_e_064.jpg,main,1.0,Q,400.0,False,True,0.0,63.0,63.0,
595.2000000476837,bRMS,48,168953,,,images/rms/f42887_e_258_1.jpg,reversed,0.0,P,400.0,False,True,0.0,63.0,63.0,
637.5999999046326,bRMS,49,170375,,,images/rms/f42887_e_025.jpg,main,0.0,P,400.0,False,True,0.0,63.0,63.0,
965.6000001430511,bRMS,50,172120,,,images/rms/f42887_e_080_1.jpg,reversed,1.0,Q,400.0,False,True,0.0,63.0,63.0,
800.2999999523163,bRMS,51,173706,,,images/rms/f42887_e_297_1.jpg,reversed,1.0,Q,400.0,False,True,0.0,63.0,63.0,
1059.8000001907349,bRMS,52,175543,,,images/rms/f42887_e_103.jpg,main,1.0,Q,400.0,False,True,0.0,63.0,63.0,
982.1999998092653,bRMS,53,177305,,,images/rms/f42887_e_001.jpg,main,1.0,Q,400.0,False,True,0.0,63.0,63.0,
916.8999998569489,bRMS,54,179001,,,images/rms/f42887_e_180_1.jpg,reversed,1.0,Q,400.0,False,True,0.0,63.0,63.0,
1501.2000000476835,bRMS,55,181288,,,images/rms/f42887_e_245_1.jpg,reversed,1.0,Q,400.0,False,True,0.0,63.0,63.0,
610.8999998569489,bRMS,56,182680,,,images/rms/f42887_e_025_1.jpg,reversed,1.0,Q,400.0,False,True,0.0,63.0,63.0,
685.6000001430511,bRMS,57,184161,,,images/rms/f42887_e_156_1.jpg,reversed,1.0,Q,400.0,False,True,0.0,63.0,63.0,
1287.0,bRMS,58,186240,,,images/rms/f42887_e_289.jpg,main,0.0,P,400.0,False,True,0.0,63.0,63.0,
1022.4000000953674,bRMS,59,188041,,,images/rms/f42887_e_156.jpg,main,1.0,Q,400.0,False,True,0.0,63.0,63.0,
661.4000000953674,bRMS,60,189480,,,images/rms/f42887_e_053.jpg,main,1.0,Q,400.0,False,True,0.0,63.0,63.0,
766.7999999523163,bRMS,61,191032,,,images/rms/f42887_e_072_1.jpg,reversed,1.0,Q,400.0,False,True,0.0,63.0,63.0,
570.0999999046326,bRMS,62,192392,,,images/rms/f42887_e_098_1.jpg,reversed,0.0,P,400.0,False,True,0.0,63.0,63.0,
534.5999999046326,bRMS,63,193704,,,images/rms/f42887_e_058.jpg,main,1.0,Q,400.0,False,True,0.0,63.0,63.0,
646.5999999046326,bRMS,64,195120,,,images/rms/f42887_e_161_1.jpg,reversed,0.0,P,400.0,False,True,0.0,63.0,63.0,
599.9000000953674,bRMS,65,196504,,,images/rms/f42887_e_241.jpg,main,1.0,Q,400.0,False,True,0.0,63.0,63.0,
853.7000000476837,bRMS,66,198137,,,images/rms/f42887_e_005.jpg,main,1.0,Q,400.0,False,True,0.0,63.0,63.0,
701.7999999523163,bRMS,67,199624,,,images/rms/f42887_e_121.jpg,main,0.0,P,400.0,False,True,0.0,63.0,63.0,
1205.9000000953674,bRMS,68,201616,,,images/rms/f42887_e_278_1.jpg,reversed,0.0,P,400.0,False,True,0.0,63.0,63.0,
597.8999998569489,bRMS,69,203009,,,images/rms/f42887_e_289_1.jpg,reversed,1.0,Q,400.0,False,True,0.0,63.0,63.0,
1006.5,bRMS,70,204792,,,images/rms/f42887_e_064_1.jpg,reversed,0.0,P,400.0,False,True,0.0,63.0,63.0,
518.4000000953674,bRMS,71,206105,,,images/rms/f42887_e_295_1.jpg,reversed,1.0,Q,400.0,False,True,0.0,63.0,63.0,
806.5999999046326,bRMS,72,207688,,,images/rms/f42887_e_005_1.jpg,reversed,0.0,P,400.0,False,True,0.0,63.0,63.0,
1272.9000000953674,bRMS,73,209736,,,images/rms/f42887_e_296_1.jpg,reversed,0.0,P,400.0,False,True,0.0,63.0,63.0,
835.6000001430511,bRMS,74,211352,,,images/rms/f42887_e_098.jpg,main,0.0,P,400.0,False,True,0.0,63.0,63.0,
1343.5999999046326,bRMS,75,213480,,,images/rms/f42887_e_140_1.jpg,reversed,1.0,Q,400.0,False,True,0.0,63.0,63.0,
621.0999999046326,bRMS,76,214888,,,images/rms/f42887_e_252_1.jpg,reversed,1.0,Q,400.0,False,True,0.0,63.0,63.0,
665.5999999046326,bRMS,77,216323,,,images/rms/f42887_e_121_1.jpg,reversed,0.0,P,400.0,False,True,0.0,63.0,63.0,
805.0999999046326,bRMS,78,217909,,,images/rms/f42887_e_015_1.jpg,reversed,1.0,Q,400.0,False,True,0.0,63.0,63.0,
603.5999999046326,bRMS,79,219288,,,images/rms/f42887_e_028_1.jpg,reversed,0.0,P,400.0,False,True,0.0,63.0,63.0,
855.2999999523163,bRMS,80,220922,,,images/rms/f42887_e_252.jpg,main,1.0,Q,400.0,False,True,0.0,63.0,63.0,
1078.2000000476835,bRMS,81,222768,,,images/rms/f42887_e_202_1.jpg,reversed,1.0,Q,400.0,False,True,0.0,63.0,63.0,
1029.6000001430511,bRMS,82,224600,,,images/rms/f42887_e_295.jpg,main,0.0,P,400.0,False,True,0.0,63.0,63.0,
655.2000000476837,bRMS,83,226039,,,images/rms/f42887_e_127.jpg,main,1.0,Q,400.0,False,True,0.0,63.0,63.0,
787.1999998092651,bRMS,84,227641,,,images/rms/f42887_e_296.jpg,main,1.0,Q,400.0,False,True,0.0,63.0,63.0,
6171.0,instructions,85,234220,,,,,,,,,,,,,
647.0,image-cpt,86,237359,,,,,,32,,,,,,,True
308.0,image-cpt,87,239508,,,,,,32,,,,,,,True
476.0,image-cpt,88,242154,,,,,,32,,,,,,,True
,image-cpt,89,244770,,,,,,,,,,,,,False
,image-cpt,90,246902,,,,,,,,,,,,,False
,image-cpt,91,249553,,,,,,,,,,,,,False
,image-cpt,92,252687,,,,,,,,,,,,,False
,image-cpt,93,255336,,,,,,,,,,,,,False
456.0,image-cpt,94,258971,,,,,,32,,,,,,,True
,image-cpt,95,260002,,,,,,,,,,,,,False
,image-cpt,96,263620,,,,,,,,,,,,,False
,image-cpt,97,266767,,,,,,,,,,,,,False
,image-cpt,98,268918,,,,,,,,,,,,,False
,image-cpt,99,271069,,,,,,,,,,,,,False
,image-cpt,100,274203,,,,,,,,,,,,,False
3701.0,instructions,101,277904,,,,,,,,,,,,,
,image-cpt,102,281550,,,,,,,,,,,,,False
,image-cpt,103,284200,,,,,,,,,,,,,False
425.0,image-cpt,104,287833,,,,,,32,,,,,,,True
503.0,image-cpt,105,290983,,,,,,32,,,,,,,True
,image-cpt,106,294633,,,,,,,,,,,,,False
,image-cpt,107,296783,,,,,,,,,,,,,False
,image-cpt,108,300434,,,,,,,,,,,,,False
,image-cpt,109,303087,,,,,,,,,,,,,False
,image-cpt,110,305237,,,,,,,,,,,,,False
,image-cpt,111,307887,,,,,,,,,,,,,False
486.0,image-cpt,112,310520,,,,,,32,,,,,,,True
,image-cpt,113,313170,,,,,,,,,,,,,False
,image-cpt,114,316305,,,,,,,,,,,,,False
,image-cpt,115,319953,,,,,,,,,,,,,False
,image-cpt,116,323586,,,,,,,,,,,,,False
,image-cpt,117,327236,,,,,,,,,,,,,False
,image-cpt,118,329386,,,,,,,,,,,,,False
457.0,image-cpt,119,331520,,,,,,32,,,,,,,True
,image-cpt,120,335169,,,,,,,,,,,,,False
,image-cpt,121,337819,,,,,,,,,,,,,False
,image-cpt,122,341469,,,,,,,,,,,,,False
,image-cpt,123,345119,,,,,,,,,,,,,False
,image-cpt,124,347769,,,,,,,,,,,,,False
,image-cpt,125,350919,,,,,,,,,,,,,False
,image-cpt,126,354069,,,,,,,,,,,,,False
448.0,image-cpt,127,357218,,,,,,32,,,,,,,True
,image-cpt,128,360352,,,,,,,,,,,,,False
,image-cpt,129,362502,,,,,,,,,,,,,False
,image-cpt,130,366152,,,,,,,,,,,,,False
510.0,image-cpt,131,368301,,,,,,32,,,,,,,True
536.0,image-cpt,132,371452,,,,,,32,,,,,,,True
,image-cpt,133,374585,,,,,,,,,,,,,False
,image-cpt,134,376735,,,,,,,,,,,,,False
,image-cpt,135,380384,,,,,,,,,,,,,False
454.0,image-cpt,136,384019,,,,,,32,,,,,,,True
579.0,image-cpt,137,386167,,,,,,32,,,,,,,True
462.0,image-cpt,138,388817,,,,,,32,,,,,,,True
452.0,image-cpt,139,391467,,,,,,32,,,,,,,True
427.0,image-cpt,140,394601,,,,,,32,,,,,,,True
460.0,image-cpt,141,398250,,,,,,32,,,,,,,True
,image-cpt,142,401900,,,,,,,,,,,,,False
,image-cpt,143,405550,,,,,,,,,,,,,False
504.0,image-cpt,144,407700,,,,,,32,,,,,,,True
,image-cpt,145,409850,,,,,,,,,,,,,False
572.0,image-cpt,146,412500,,,,,,32,,,,,,,True
,image-cpt,147,415650,,,,,,,,,,,,,False
,image-cpt,148,418800,,,,,,,,,,,,,False
,image-cpt,149,421948,,,,,,,,,,,,,False
424.0,image-cpt,150,424098,,,,,,32,,,,,,,True
,image-cpt,151,426748,,,,,,,,,,,,,False
,image-cpt,152,429898,,,,,,,,,,,,,False
475.0,image-cpt,153,433548,,,,,,32,,,,,,,True
,image-cpt,154,435698,,,,,,,,,,,,,False
451.0,image-cpt,155,439347,,,,,,32,,,,,,,True
,image-cpt,156,441998,,,,,,,,,,,,,False
,image-cpt,157,445632,,,,,,,,,,,,,False
,image-cpt,158,447781,,,,,,,,,,,,,False
,image-cpt,159,451430,,,,,,,,,,,,,False
,image-cpt,160,455064,,,,,,,,,,,,,False
,image-cpt,161,457714,,,,,,,,,,,,,False
,image-cpt,162,461363,,,,,,,,,,,,,False
,image-cpt,163,464013,,,,,,,,,,,,,False
,image-cpt,164,466648,,,,,,,,,,,,,False
461.0,image-cpt,165,469796,,,,,,32,,,,,,,True
,image-cpt,166,472446,,,,,,,,,,,,,False
455.0,image-cpt,167,475081,,,,,,32,,,,,,,True
,image-cpt,168,477229,,,,,,,,,,,,,False
503.0,image-cpt,169,480863,,,,,,32,,,,,,,True
,image-cpt,170,483512,,,,,,,,,,,,,False
492.0,image-cpt,171,486162,,,,,,32,,,,,,,True
,image-cpt,172,489812,,,,,,,,,,,,,False
448.0,image-cpt,173,493462,,,,,,32,,,,,,,True
415.0,image-cpt,174,495612,,,,,,32,,,,,,,True
,image-cpt,175,498262,,,,,,,,,,,,,False
415.0,image-cpt,176,500896,,,,,,32,,,,,,,True
,image-cpt,177,504545,,,,,,,,,,,,,False
388.0,image-cpt,178,506695,,,,,,32,,,,,,,True
,image-cpt,179,510329,,,,,,,,,,,,,False
492.0,image-cpt,180,513478,,,,,,32,,,,,,,True
,image-cpt,181,516627,,,,,,,,,,,,,False
,image-cpt,182,519778,,,,,,,,,,,,,False
,image-cpt,183,522427,,,,,,,,,,,,,False
,image-cpt,184,524577,,,,,,,,,,,,,False
,image-cpt,185,526712,,,,,,,,,,,,,False
,image-cpt,186,528861,,,,,,,,,,,,,False
,image-cpt,187,532010,,,,,,,,,,,,,False
474.0,image-cpt,188,534145,,,,,,32,,,,,,,True
,image-cpt,189,537293,,,,,,,,,,,,,False
,image-cpt,190,540443,,,,,,,,,,,,,False
,image-cpt,191,543593,,,,,,,,,,,,,False
427.0,image-cpt,192,546727,,,,,,32,,,,,,,True
,image-cpt,193,548876,,,,,,,,,,,,,False
,image-cpt,194,552026,,,,,,,,,,,,,False
475.0,image-cpt,195,554676,,,,,,32,,,,,,,True
,image-cpt,196,557325,,,,,,,,,,,,,False
,image-cpt,197,560960,,,,,,,,,,,,,False
,image-cpt,198,564608,,,,,,,,,,,,,False
,image-cpt,199,566759,,,,,,,,,,,,,False
478.0,image-cpt,200,570392,,,,,,32,,,,,,,True
,image-cpt,201,572542,,,,,,,,,,,,,False
,image-cpt,202,575176,,,,,,,,,,,,,False
,image-cpt,203,577325,,,,,,,,,,,,,False
,image-cpt,204,579475,,,,,,,,,,,,,False
497.0,image-cpt,205,582625,,,,,,32,,,,,,,True
500.0,image-cpt,206,585275,,,,,,32,,,,,,,True
,image-cpt,207,588424,,,,,,,,,,,,,False
,image-cpt,208,592074,,,,,,,,,,,,,False
474.0,image-cpt,209,595724,,,,,,32,,,,,,,True
456.0,image-cpt,210,598358,,,,,,32,,,,,,,True
559.0,image-cpt,211,602007,,,,,,32,,,,,,,True
,image-cpt,212,604657,,,,,,,,,,,,,False
,image-cpt,213,608307,,,,,,,,,,,,,False
,image-cpt,214,611940,,,,,,,,,,,,,False
,image-cpt,215,614090,,,,,,,,,,,,,False
,image-cpt,216,616740,,,,,,,,,,,,,False
,image-cpt,217,618890,,,,,,,,,,,,,False
,image-cpt,218,622540,,,,,,,,,,,,,False
,image-cpt,219,624690,,,,,,,,,,,,,False
,image-cpt,220,628339,,,,,,,,,,,,,False
,image-cpt,221,631989,,,,,,,,,,,,,False
,image-cpt,222,634639,,,,,,,,,,,,,False
,image-cpt,223,637789,,,,,,,,,,,,,False
488.0,image-cpt,224,641439,,,,,,32,,,,,,,True
518.0,image-cpt,225,643589,,,,,,32,,,,,,,True
,image-cpt,226,647239,,,,,,,,,,,,,False
,image-cpt,227,650888,,,,,,,,,,,,,False
444.0,image-cpt,228,654038,,,,,,32,,,,,,,True
462.0,image-cpt,229,656672,,,,,,32,,,,,,,True
404.0,image-cpt,230,658805,,,,,,32,,,,,,,True
400.0,image-cpt,231,661455,,,,,,32,,,,,,,True
438.0,image-cpt,232,664605,,,,,,32,,,,,,,True
,image-cpt,233,667755,,,,,,,,,,,,,False
,image-cpt,234,670405,,,,,,,,,,,,,False
,image-cpt,235,673055,,,,,,,,,,,,,False
,image-cpt,236,676205,,,,,,,,,,,,,False
,image-cpt,237,678355,,,,,,,,,,,,,False
,image-cpt,238,681004,,,,,,,,,,,,,False
,image-cpt,239,684654,,,,,,,,,,,,,False
,image-cpt,240,687289,,,,,,,,,,,,,False
,image-cpt,241,690438,,,,,,,,,,,,,False
,image-cpt,242,693587,,,,,,,,,,,,,False
,image-cpt,243,696737,,,,,,,,,,,,,False
,image-cpt,244,699887,,,,,,,,,,,,,False
,image-cpt,245,703037,,,,,,,,,,,,,False
,image-cpt,246,706686,,,,,,,,,,,,,False
503.0,image-cpt,247,710320,,,,,,32,,,,,,,True
,image-cpt,248,712470,,,,,,,,,,,,,False
,image-cpt,249,715620,,,,,,,,,,,,,False
,image-cpt,250,717770,,,,,,,,,,,,,False
,image-cpt,251,720919,,,,,,,,,,,,,False
,image-cpt,252,721953,,,,,,,,,,,,,False
,image-cpt,253,725102,,,,,,,,,,,,,False
551.0,image-cpt,254,728737,,,,,,32,,,,,,,True
,image-cpt,255,730885,,,,,,,,,,,,,False
512.0,image-cpt,256,734535,,,,,,32,,,,,,,True
430.0,image-cpt,257,736685,,,,,,32,,,,,,,True
,image-cpt,258,738835,,,,,,,,,,,,,False
,image-cpt,259,741485,,,,,,,,,,,,,False
,image-cpt,260,745135,,,,,,,,,,,,,False
,image-cpt,261,748768,,,,,,,,,,,,,False
,image-cpt,262,752418,,,,,,,,,,,,,False
,image-cpt,263,755552,,,,,,,,,,,,,False
,image-cpt,264,758201,,,,,,,,,,,,,False
,image-cpt,265,761851,,,,,,,,,,,,,False
,image-cpt,266,764501,,,,,,,,,,,,,False
561.0,image-cpt,267,766651,,,,,,32,,,,,,,True
,image-cpt,268,768784,,,,,,,,,,,,,False
454.0,image-cpt,269,771934,,,,,,32,,,,,,,True
,image-cpt,270,774584,,,,,,,,,,,,,False
,image-cpt,271,776734,,,,,,,,,,,,,False
,image-cpt,272,780383,,,,,,,,,,,,,False
486.0,image-cpt,273,783533,,,,,,32,,,,,,,True
408.0,image-cpt,274,786182,,,,,,32,,,,,,,True
,image-cpt,275,789816,,,,,,,,,,,,,False
524.0,image-cpt,276,792966,,,,,,32,,,,,,,True
,image-cpt,277,795115,,,,,,,,,,,,,False
393.0,image-cpt,278,798265,,,,,,32,,,,,,,True
539.0,image-cpt,279,801915,,,,,,32,,,,,,,True
361.0,image-cpt,280,804065,,,,,,32,,,,,,,True
403.0,image-cpt,281,807715,,,,,,32,,,,,,,True
,image-cpt,282,809865,,,,,,,,,,,,,False
476.0,image-cpt,283,812515,,,,,,32,,,,,,,True
466.0,image-cpt,284,815165,,,,,,32,,,,,,,True
,image-cpt,285,817815,,,,,,,,,,,,,False
414.0,image-cpt,286,819964,,,,,,32,,,,,,,True
488.0,image-cpt,287,822114,,,,,,32,,,,,,,True
386.0,image-cpt,288,825764,,,,,,32,,,,,,,True
,image-cpt,289,828914,,,,,,,,,,,,,False
,image-cpt,290,832048,,,,,,,,,,,,,False
,image-cpt,291,834197,,,,,,,,,,,,,False
,image-cpt,292,837347,,,,,,,,,,,,,False
,image-cpt,293,839497,,,,,,,,,,,,,False
,image-cpt,294,842647,,,,,,,,,,,,,False
462.0,image-cpt,295,844797,,,,,,32,,,,,,,True
,image-cpt,296,847947,,,,,,,,,,,,,False
474.0,image-cpt,297,851096,,,,,,32,,,,,,,True
,image-cpt,298,853246,,,,,,,,,,,,,False
,image-cpt,299,856396,,,,,,,,,,,,,False
,image-cpt,300,860046,,,,,,,,,,,,,False
,image-cpt,301,862196,,,,,,,,,,,,,False
,image-cpt,302,864846,,,,,,,,,,,,,False
487.0,image-cpt,303,867480,,,,,,32,,,,,,,True
,image-cpt,304,870113,,,,,,,,,,,,,False
,image-cpt,305,872762,,,,,,,,,,,,,False
,image-cpt,306,875412,,,,,,,,,,,,,False
,image-cpt,307,877562,,,,,,,,,,,,,False
,image-cpt,308,880212,,,,,,,,,,,,,False
,image-cpt,309,883362,,,,,,,,,,,,,False
,image-cpt,310,886495,,,,,,,,,,,,,False
,image-cpt,311,889145,,,,,,,,,,,,,False
,image-cpt,312,892795,,,,,,,,,,,,,False
,image-cpt,313,893828,,,,,,,,,,,,,False
,image-cpt,314,896478,,,,,,,,,,,,,False
,image-cpt,315,899127,,,,,,,,,,,,,False
,image-cpt,316,901278,,,,,,,,,,,,,False
,image-cpt,317,904911,,,,,,,,,,,,,False
,image-cpt,318,908061,,,,,,,,,,,,,False
599.0,image-cpt,319,911710,,,,,,32,,,,,,,True
,image-cpt,320,915344,,,,,,,,,,,,,False
,image-cpt,321,917994,,,,,,,,,,,,,False
,image-cpt,322,920643,,,,,,,,,,,,,False
481.0,image-cpt,323,923793,,,,,,32,,,,,,,True
,image-cpt,324,927443,,,,,,,,,,,,,False
,image-cpt,325,929593,,,,,,,,,,,,,False
,image-cpt,326,932743,,,,,,,,,,,,,False
,image-cpt,327,934893,,,,,,,,,,,,,False
,image-cpt,328,938543,,,,,,,,,,,,,False
,image-cpt,329,941693,,,,,,,,,,,,,False
,image-cpt,330,944842,,,,,,,,,,,,,False
,image-cpt,331,947976,,,,,,,,,,,,,False
,image-cpt,332,950125,,,,,,,,,,,,,False
,image-cpt,333,953775,,,,,,,,,,,,,False
484.0,image-cpt,334,956425,,,,,,32,,,,,,,True
,image-cpt,335,960075,,,,,,,,,,,,,False
,image-cpt,336,962225,,,,,,,,,,,,,False
,image-cpt,337,964375,,,,,,,,,,,,,False
,image-cpt,338,967025,,,,,,,,,,,,,False
,image-cpt,339,970675,,,,,,,,,,,,,False
562.0,image-cpt,340,973324,,,,,,32,,,,,,,True
,image-cpt,341,976474,,,,,,,,,,,,,False
569.0,image-cpt,342,978607,,,,,,32,,,,,,,True
549.0,image-cpt,343,981758,,,,,,32,,,,,,,True
,image-cpt,344,984908,,,,,,,,,,,,,False
,image-cpt,345,988057,,,,,,,,,,,,,False
,image-cpt,346,991207,,,,,,,,,,,,,False
526.0,image-cpt,347,993357,,,,,,32,,,,,,,True
,image-cpt,348,995507,,,,,,,,,,,,,False
466.0,image-cpt,349,998157,,,,,,32,,,,,,,True
552.0,image-cpt,350,1000806,,,,,,32,,,,,,,True
,image-cpt,351,1002956,,,,,,,,,,,,,False
,image-cpt,352,1005606,,,,,,,,,,,,,False
,image-cpt,353,1008256,,,,,,,,,,,,,False
,image-cpt,354,1011906,,,,,,,,,,,,,False
,image-cpt,355,1015556,,,,,,,,,,,,,False
,image-cpt,356,1018706,,,,,,,,,,,,,False
,image-cpt,357,1020840,,,,,,,,,,,,,False
556.0,image-cpt,358,1022989,,,,,,32,,,,,,,True
,image-cpt,359,1026639,,,,,,,,,,,,,False
,image-cpt,360,1028789,,,,,,,,,,,,,False
496.0,image-cpt,361,1032439,,,,,,32,,,,,,,True
478.0,image-cpt,362,1036089,,,,,,32,,,,,,,True
,image-cpt,363,1039238,,,,,,,,,,,,,False
398.0,image-cpt,364,1041388,,,,,,32,,,,,,,True
,image-cpt,365,1044038,,,,,,,,,,,,,False
,image-cpt,366,1047672,,,,,,,,,,,,,False
,image-cpt,367,1049821,,,,,,,,,,,,,False
,image-cpt,368,1051971,,,,,,,,,,,,,False
,image-cpt,369,1054621,,,,,,,,,,,,,False
423.0,image-cpt,370,1057771,,,,,,32,,,,,,,True
698.0,image-cpt,371,1060421,,,,,,32,,,,,,,True
,image-cpt,372,1063071,,,,,,,,,,,,,False
,image-cpt,373,1066221,,,,,,,,,,,,,False
,image-cpt,374,1069371,,,,,,,,,,,,,False
,image-cpt,375,1072020,,,,,,,,,,,,,False
480.0,image-cpt,376,1075170,,,,,,32,,,,,,,True
562.0,image-cpt,377,1078304,,,,,,32,,,,,,,True
,image-cpt,378,1081953,,,,,,,,,,,,,False
515.0,image-cpt,379,1084103,,,,,,32,,,,,,,True
670.0,image-cpt,380,1087753,,,,,,32,,,,,,,True
,image-cpt,381,1090403,,,,,,,,,,,,,False
,image-cpt,382,1092553,,,,,,,,,,,,,False
,image-cpt,383,1095703,,,,,,,,,,,,,False
,image-cpt,384,1098852,,,,,,,,,,,,,False
,image-cpt,385,1101002,,,,,,,,,,,,,False
,image-cpt,386,1104652,,,,,,,,,,,,,False
,image-cpt,387,1106802,,,,,,,,,,,,,False
498.0,image-cpt,388,1110452,,,,,,32,,,,,,,True
545.0,image-cpt,389,1113102,,,,,,32,,,,,,,True
,image-cpt,390,1116252,,,,,,,,,,,,,False
,image-cpt,391,1118902,,,,,,,,,,,,,False
,image-cpt,392,1121536,,,,,,,,,,,,,False
468.0,image-cpt,393,1124185,,,,,,32,,,,,,,True
,image-cpt,394,1126335,,,,,,,,,,,,,False
,image-cpt,395,1129985,,,,,,,,,,,,,False
468.0,image-cpt,396,1133634,,,,,,32,,,,,,,True
,image-cpt,397,1136768,,,,,,,,,,,,,False
,image-cpt,398,1139918,,,,,,,,,,,,,False
455.0,image-cpt,399,1142567,,,,,,32,,,,,,,True
461.0,image-cpt,400,1144717,,,,,,32,,,,,,,True
,image-cpt,401,1148367,,,,,,,,,,,,,False
534.0,image-cpt,402,1151017,,,,,,32,,,,,,,True
,image-cpt,403,1153167,,,,,,,,,,,,,False
,image-cpt,404,1155317,,,,,,,,,,,,,False
,image-cpt,405,1158467,,,,,,,,,,,,,False
498.0,image-cpt,406,1160616,,,,,,32,,,,,,,True
,image-cpt,407,1162767,,,,,,,,,,,,,False
518.0,image-cpt,408,1165416,,,,,,32,,,,,,,True
,image-cpt,409,1169066,,,,,,,,,,,,,False
,image-cpt,410,1171716,,,,,,,,,,,,,False
625.0,image-cpt,411,1174366,,,,,,32,,,,,,,True
,image-cpt,412,1177000,,,,,,,,,,,,,False
,image-cpt,413,1180649,,,,,,,,,,,,,False
635.0,image-cpt,414,1183799,,,,,,32,,,,,,,True
622.0,image-cpt,415,1186433,,,,,,32,,,,,,,True
,image-cpt,416,1188582,,,,,,,,,,,,,False
479.0,image-cpt,417,1191732,,,,,,32,,,,,,,True
,image-cpt,418,1193882,,,,,,,,,,,,,False
,image-cpt,419,1196531,,,,,,,,,,,,,False
,image-cpt,420,1199682,,,,,,,,,,,,,False
,image-cpt,421,1201815,,,,,,,,,,,,,False
60470.0,instructions,422,1262286,,,,,,,,,,,,,
2409.0,bRMS,423,1265056,,,images/rms/f42887_e_140.jpg,control_main,0.0,P,400.0,False,True,0.0,63.0,63.0,
2203.699999809265,bRMS,424,1268040,,,images/rms/f42887_e_259_1.jpg,control_reversed,0.0,P,400.0,False,True,0.0,63.0,63.0,
1103.7000000476835,bRMS,425,1269921,,,images/rms/f42887_e_156.jpg,control_main,0.0,P,400.0,False,True,0.0,63.0,63.0,
887.5999999046326,bRMS,426,1271593,,,images/rms/f42887_e_121.jpg,control_main,0.0,P,400.0,False,True,0.0,63.0,63.0,
1222.5,bRMS,427,1273608,,,images/rms/f42887_e_298.jpg,control_main,1.0,Q,400.0,False,True,0.0,63.0,63.0,
773.0,bRMS,428,1275160,,,images/rms/f42887_e_258.jpg,control_main,1.0,Q,400.0,False,True,0.0,63.0,63.0,
1190.0999999046326,bRMS,429,1277128,,,images/rms/f42887_e_278_1.jpg,control_reversed,1.0,Q,400.0,False,True,0.0,63.0,63.0,
566.7999999523163,bRMS,430,1278472,,,images/rms/f42887_e_278.jpg,control_main,0.0,P,400.0,False,True,0.0,63.0,63.0,
662.2999999523163,bRMS,431,1279912,,,images/rms/f42887_e_289.jpg,control_main,1.0,Q,400.0,False,True,0.0,63.0,63.0,
582.7000000476837,bRMS,432,1281273,,,images/rms/f42887_e_259.jpg,control_main,1.0,Q,400.0,False,True,0.0,63.0,63.0,
631.0999999046326,bRMS,433,1282672,,,images/rms/f42887_e_058.jpg,control_main,0.0,P,400.0,False,True,0.0,63.0,63.0,
775.5,bRMS,434,1284224,,,images/rms/f42887_e_252.jpg,control_main,0.0,P,400.0,False,True,0.0,63.0,63.0,
542.6000001430511,bRMS,435,1285552,,,images/rms/f42887_e_245.jpg,control_main,1.0,Q,400.0,False,True,0.0,63.0,63.0,
1086.7000000476835,bRMS,436,1287425,,,images/rms/f42887_e_064.jpg,control_main,0.0,P,400.0,False,True,0.0,63.0,63.0,
878.9000000953674,bRMS,437,1289072,,,images/rms/f42887_e_127.jpg,control_main,0.0,P,400.0,False,True,0.0,63.0,63.0,
622.9000000953674,bRMS,438,1290488,,,images/rms/f42887_e_015.jpg,control_main,1.0,Q,400.0,False,True,0.0,63.0,63.0,
695.0999999046326,bRMS,439,1291960,,,images/rms/f42887_e_098_1.jpg,control_reversed,0.0,P,400.0,False,True,0.0,63.0,63.0,
664.5999999046326,bRMS,440,1293401,,,images/rms/f42887_e_127_1.jpg,control_reversed,1.0,Q,400.0,False,True,0.0,63.0,63.0,
675.2999999523163,bRMS,441,1294874,,,images/rms/f42887_e_202.jpg,control_main,0.0,P,400.0,False,True,0.0,63.0,63.0,
519.0,bRMS,442,1296169,,,images/rms/f42887_e_103.jpg,control_main,1.0,Q,400.0,False,True,0.0,63.0,63.0,
959.4000000953674,bRMS,443,1297910,,,images/rms/f42887_e_293_1.jpg,control_reversed,1.0,Q,400.0,False,True,0.0,63.0,63.0,
768.5,bRMS,444,1299440,,,images/rms/f42887_e_241_1.jpg,control_reversed,1.0,Q,400.0,False,True,0.0,63.0,63.0,
669.4000000953674,bRMS,445,1300904,,,images/rms/f42887_e_005.jpg,control_main,0.0,P,400.0,False,True,0.0,63.0,63.0,
560.3999998569489,bRMS,446,1302241,,,images/rms/f42887_e_098.jpg,control_main,1.0,Q,400.0,False,True,0.0,63.0,63.0,
863.4000000953674,bRMS,447,1303877,,,images/rms/f42887_e_245_1.jpg,control_reversed,1.0,Q,400.0,False,True,0.0,63.0,63.0,
511.59999990463257,bRMS,448,1305161,,,images/rms/f42887_e_180_1.jpg,control_reversed,0.0,P,400.0,False,True,0.0,63.0,63.0,
665.2999999523163,bRMS,449,1306609,,,images/rms/f42887_e_296_1.jpg,control_reversed,0.0,P,400.0,False,True,0.0,63.0,63.0,
638.0,bRMS,450,1308024,,,images/rms/f42887_e_156_1.jpg,control_reversed,0.0,P,400.0,False,True,0.0,63.0,63.0,
711.2000000476837,bRMS,451,1309504,,,images/rms/f42887_e_252_1.jpg,control_reversed,0.0,P,400.0,False,True,0.0,63.0,63.0,
550.9000000953674,bRMS,452,1310840,,,images/rms/f42887_e_289_1.jpg,control_reversed,0.0,P,400.0,False,True,0.0,63.0,63.0,
951.5,bRMS,453,1312568,,,images/rms/f42887_e_001_1.jpg,control_reversed,1.0,Q,400.0,False,True,0.0,63.0,63.0,
815.8000001907349,bRMS,454,1314178,,,images/rms/f42887_e_297_1.jpg,control_reversed,1.0,Q,400.0,False,True,0.0,63.0,63.0,
560.0,bRMS,455,1315504,,,images/rms/f42887_e_103_1.jpg,control_reversed,0.0,P,400.0,False,True,0.0,63.0,63.0,
662.4000000953674,bRMS,456,1316953,,,images/rms/f42887_e_296.jpg,control_main,0.0,P,400.0,False,True,0.0,63.0,63.0,
734.2000000476837,bRMS,457,1318473,,,images/rms/f42887_e_072.jpg,control_main,0.0,P,400.0,False,True,0.0,63.0,63.0,
761.2999999523163,bRMS,458,1320010,,,images/rms/f42887_e_295_1.jpg,control_reversed,1.0,Q,400.0,False,True,0.0,63.0,63.0,
870.0999999046326,bRMS,459,1321657,,,images/rms/f42887_e_025.jpg,control_main,1.0,Q,400.0,False,True,0.0,63.0,63.0,
950.7999999523164,bRMS,460,1323384,,,images/rms/f42887_e_121_1.jpg,control_reversed,1.0,Q,400.0,False,True,0.0,63.0,63.0,
846.5999999046326,bRMS,461,1325017,,,images/rms/f42887_e_297.jpg,control_main,1.0,Q,400.0,False,True,0.0,63.0,63.0,
877.6999998092651,bRMS,462,1326672,,,images/rms/f42887_e_053.jpg,control_main,1.0,Q,400.0,False,True,0.0,63.0,63.0,
644.5,bRMS,463,1328088,,,images/rms/f42887_e_005_1.jpg,control_reversed,0.0,P,400.0,False,True,0.0,63.0,63.0,
1431.1000001430511,bRMS,464,1330289,,,images/rms/f42887_e_053_1.jpg,control_reversed,1.0,Q,400.0,False,True,0.0,63.0,63.0,
749.5999999046326,bRMS,465,1331817,,,images/rms/f42887_e_028_1.jpg,control_reversed,1.0,Q,400.0,False,True,0.0,63.0,63.0,
800.0999999046326,bRMS,466,1333424,,,images/rms/f42887_e_072_1.jpg,control_reversed,1.0,Q,400.0,False,True,0.0,63.0,63.0,
829.7999999523163,bRMS,467,1335041,,,images/rms/f42887_e_161.jpg,control_main,1.0,Q,400.0,False,True,0.0,63.0,63.0,
1309.5999999046326,bRMS,468,1337120,,,images/rms/f42887_e_140_1.jpg,control_reversed,1.0,Q,400.0,False,True,0.0,63.0,63.0,
710.0,bRMS,469,1338608,,,images/rms/f42887_e_258_1.jpg,control_reversed,1.0,Q,400.0,False,True,0.0,63.0,63.0,
974.7000000476836,bRMS,470,1340358,,,images/rms/f42887_e_028.jpg,control_main,0.0,P,400.0,False,True,0.0,63.0,63.0,
503.5,bRMS,471,1341640,,,images/rms/f42887_e_080.jpg,control_main,1.0,Q,400.0,False,True,0.0,63.0,63.0,
1143.0,bRMS,472,1343559,,,images/rms/f42887_e_161_1.jpg,control_reversed,0.0,P,400.0,False,True,0.0,63.0,63.0,
461.09999990463257,bRMS,473,1344825,,,images/rms/f42887_e_241.jpg,control_main,1.0,Q,400.0,False,True,0.0,63.0,63.0,
1350.5,bRMS,474,1346953,,,images/rms/f42887_e_298_1.jpg,control_reversed,0.0,P,400.0,False,True,0.0,63.0,63.0,
1007.5,bRMS,475,1348752,,,images/rms/f42887_e_064_1.jpg,control_reversed,0.0,P,400.0,False,True,0.0,63.0,63.0,
518.5,bRMS,476,1350057,,,images/rms/f42887_e_295.jpg,control_main,1.0,Q,400.0,False,True,0.0,63.0,63.0,
663.3999998569489,bRMS,477,1351488,,,images/rms/f42887_e_080_1.jpg,control_reversed,0.0,P,400.0,False,True,0.0,63.0,63.0,
686.7999999523163,bRMS,478,1352968,,,images/rms/f42887_e_058_1.jpg,control_reversed,0.0,P,400.0,False,True,0.0,63.0,63.0,
655.2999999523163,bRMS,479,1354408,,,images/rms/f42887_e_293.jpg,control_main,0.0,P,400.0,False,True,0.0,63.0,63.0,
537.5999999046326,bRMS,480,1355721,,,images/rms/f42887_e_025_1.jpg,control_reversed,1.0,Q,400.0,False,True,0.0,63.0,63.0,
933.2000000476836,bRMS,481,1357434,,,images/rms/f42887_e_202_1.jpg,control_reversed,1.0,Q,400.0,False,True,0.0,63.0,63.0,
736.0999999046326,bRMS,482,1358936,,,images/rms/f42887_e_001.jpg,control_main,1.0,Q,400.0,False,True,0.0,63.0,63.0,
887.2999999523163,bRMS,483,1360600,,,images/rms/f42887_e_180.jpg,control_main,1.0,Q,400.0,False,True,0.0,63.0,63.0,
2512.399999856949,bRMS,484,1363896,,,images/rms/f42887_e_015_1.jpg,control_reversed,1.0,Q,400.0,False,True,0.0,63.0,63.0,
5090.0,instructions,485,1369406,,,,,,,,,,,,,
30791.0,survey-likert,486,1400198,"{""Q0"":3,""Q1"":1,""Q2"":0}",ASRS_1_0,,,,,,,,,,,
11191.0,survey-likert,487,1411390,"{""Q0"":1,""Q1"":4,""Q2"":3}",ASRS_2_3,,,,,,,,,,,
17351.0,survey-likert,488,1428742,"{""Q0"":0,""Q1"":2,""Q2"":1}",ASRS_2_9,,,,,,,,,,,
16143.0,survey-likert,489,1444885,"{""Q0"":2,""Q1"":2,""Q2"":2}",ASRS_1_3,,,,,,,,,,,
12367.0,survey-likert,490,1457254,"{""Q0"":2,""Q1"":3,""Q2"":3}",ASRS_2_6,,,,,,,,,,,
17135.0,survey-likert,491,1474390,"{""Q0"":1,""Q1"":3,""Q2"":2}",ASRS_2_0,,,,,,,,,,,
5143.0,survey-likert,492,1479534,"{""Q0"":4}",LAST_1,,,,,,,,,,,
5255.0,survey-multi-choice,493,1484790,"{""Q0"":""כן""}",,,,,,,,,,,,
37527.0,survey-text,494,1522318,"{""Q0"":""הסתכלתי על מצד מסוים ובדקתי אם שם מופיעה התמונה. אם היא לא הייתה שם בחרתי את הצד השני, ולהפך. ""}",,,,,,,,,,,,
3191.0,survey-likert,495,1525510,"{""Q0"":4}",LAST_4,,,,,,,,,,,
1886.0,survey-multi-choice,496,1527398,"{""Q0"":""לא""}",,,,,,,,,,,,
1527.0,survey-text,497,1528926,"{""Q0"":""""}",,,,,,,,,,,,
5759.0,survey-likert,498,1534686,"{""Q0"":6}",DRIVE_1,,,,,,,,,,,
11456.0,survey-text,499,1546142,"{""Q0"":""0""}",,,,,,,,,,,,
5296.0,survey-text,500,1551438,"{""Q0"":""0""}",,,,,,,,,,,,
1184.0,instructions,501,1552622,,,,,,,,,,,,,
