rt,trial_type,trial_index,time_elapsed,responses,name,key_press,is_stimulus,stimulus,stimulus_block,stimulus_side,time_post_trial,is_fullscreen,correct,trial_began,block,sub_block
29284.0,instructions,0,29284,,,,,,,,,,,,,
13574.0,survey-multi-choice,1,42860,"{""Q0"":""אישה"",""Q1"":""ימין"",""Q2"":""ערבית""}",,,,,,,,,,,,
8510.0,survey-text,2,51372,"{""Q0"":""20"",""Q1"":""12""}",,,,,,,,,,,,
4239.0,survey-multi-choice,3,55613,"{""Q0"":""לא""}",,,,,,,,,,,,
7751.0,survey-likert,4,63365,"{""Q0"":2}",attention_2,,,,,,,,,,,
15167.0,instructions,5,78532,,,,,,,,,,,,,
,image-cpt,6,81662,,,,False,,,,,,,,,
,image-cpt,7,83812,,,,False,,,,,,,,,
,image-cpt,8,86445,,,,False,,,,,,,,,
,image-cpt,9,89080,,,,False,,,,,,,,,
,image-cpt,10,92728,,,,False,,,,,,,,,
,image-cpt,11,95861,,,,False,,,,,,,,,
,image-cpt,12,99495,,,,False,,,,,,,,,
,image-cpt,13,100528,,,,False,,,,,,,,,
,image-cpt,14,102679,,,,True,,,,,,,,,
,image-cpt,15,106327,,,,True,,,,,,,,,
,image-cpt,16,109461,,,,False,,,,,,,,,
,image-cpt,17,112111,,,,False,,,,,,,,,
,image-cpt,18,114738,,,,True,,,,,,,,,
,image-cpt,19,118396,,,,False,,,,,,,,,
,image-cpt,20,121546,,,,True,,,,,,,,,
7955.0,instructions,21,129502,,,,,,,,,,,,,
,image-cpt,22,132645,,,,False,,,,,,,,,
,image-cpt,23,135779,,,,True,,,,,,,,,
,image-cpt,24,139413,,,,False,,,,,,,,,
,image-cpt,25,142062,,,,True,,,,,,,,,
,image-cpt,26,145196,,,,False,,,,,,,,,
,image-cpt,27,148829,,,,False,,,,,,,,,
,image-cpt,28,151978,,,,False,,,,,,,,,
,image-cpt,29,155612,,,,False,,,,,,,,,
,image-cpt,30,158760,,,,True,,,,,,,,,
,image-cpt,31,161395,,,,False,,,,,,,,,
,image-cpt,32,163544,,,,True,,,,,,,,,
,image-cpt,33,165694,,,,True,,,,,,,,,
,image-cpt,34,168344,,,,False,,,,,,,,,
,image-cpt,35,171495,,,,False,,,,,,,,,
,image-cpt,36,174628,,,,True,,,,,,,,,
,image-cpt,37,176763,,,,False,,,,,,,,,
,image-cpt,38,179910,,,,False,,,,,,,,,
,image-cpt,39,182060,,,,False,,,,,,,,,
,image-cpt,40,185204,,,,False,,,,,,,,,
,image-cpt,41,188343,,,,True,,,,,,,,,
,image-cpt,42,190993,,,,False,,,,,,,,,
,image-cpt,43,193143,,,,False,,,,,,,,,
,image-cpt,44,195293,,,,False,,,,,,,,,
,image-cpt,45,197427,,,,True,,,,,,,,,
,image-cpt,46,201061,,,,True,,,,,,,,,
,image-cpt,47,203709,,,,True,,,,,,,,,
,image-cpt,48,204743,,,,False,,,,,,,,,
,image-cpt,49,207393,,,,True,,,,,,,,,
,image-cpt,50,210026,,,,False,,,,,,,,,
,image-cpt,51,212175,,,,False,,,,,,,,,
,image-cpt,52,215310,,,,False,,,,,,,,,
,image-cpt,53,218443,,,,True,,,,,,,,,
,image-cpt,54,222076,,,,False,,,,,,,,,
,image-cpt,55,225225,,,,False,,,,,,,,,
,image-cpt,56,228860,,,,False,,,,,,,,,
,image-cpt,57,231008,,,,False,,,,,,,,,
,image-cpt,58,234643,,,,False,,,,,,,,,
,image-cpt,59,236793,,,,False,,,,,,,,,
,image-cpt,60,239443,,,,False,,,,,,,,,
,image-cpt,61,242594,,,,False,,,,,,,,,
,image-cpt,62,245243,,,,False,,,,,,,,,
,image-cpt,63,247395,,,,False,,,,,,,,,
,image-cpt,64,250528,,,,False,,,,,,,,,
,image-cpt,65,253676,,,,True,,,,,,,,,
,image-cpt,66,256311,,,,False,,,,,,,,,
,image-cpt,67,259459,,,,False,,,,,,,,,
,image-cpt,68,262609,,,,False,,,,,,,,,
,image-cpt,69,265743,,,,False,,,,,,,,,
,image-cpt,70,268392,,,,False,,,,,,,,,
,image-cpt,71,270510,,,,True,,,,,,,,,
,image-cpt,72,274143,,,,False,,,,,,,,,
,image-cpt,73,277792,,,,False,,,,,,,,,
,image-cpt,74,280441,,,,False,,,,,,,,,
,image-cpt,75,283091,,,,False,,,,,,,,,
,image-cpt,76,286726,,,,False,,,,,,,,,
,image-cpt,77,289875,,,,False,,,,,,,,,
,image-cpt,78,292509,,,,False,,,,,,,,,
,image-cpt,79,296137,,,,False,,,,,,,,,
,image-cpt,80,299286,,,,True,,,,,,,,,
,image-cpt,81,302920,,,,False,,,,,,,,,
,image-cpt,82,306553,,,,True,,,,,,,,,
,image-cpt,83,309187,,,,False,,,,,,,,,
,image-cpt,84,311322,,,,False,,,,,,,,,
,image-cpt,85,313953,,,,True,,,,,,,,,
,image-cpt,86,316604,,,,True,,,,,,,,,
,image-cpt,87,319737,,,,False,,,,,,,,,
,image-cpt,88,323369,,,,False,,,,,,,,,
,image-cpt,89,326519,,,,True,,,,,,,,,
,image-cpt,90,329668,,,,True,,,,,,,,,
,image-cpt,91,331818,,,,True,,,,,,,,,
,image-cpt,92,334468,,,,False,,,,,,,,,
,image-cpt,93,337118,,,,False,,,,,,,,,
,image-cpt,94,340267,,,,False,,,,,,,,,
,image-cpt,95,343918,,,,True,,,,,,,,,
,image-cpt,96,347567,,,,False,,,,,,,,,
,image-cpt,97,351217,,,,False,,,,,,,,,
,image-cpt,98,354352,,,,True,,,,,,,,,
,image-cpt,99,356509,,,,False,,,,,,,,,
,image-cpt,100,360158,,,,False,,,,,,,,,
,image-cpt,101,362309,,,,False,,,,,,,,,
,image-cpt,102,365442,,,,False,,,,,,,,,
,image-cpt,103,369076,,,,True,,,,,,,,,
,image-cpt,104,371725,,,,False,,,,,,,,,
,image-cpt,105,374858,,,,False,,,,,,,,,
,image-cpt,106,378492,,,,False,,,,,,,,,
,image-cpt,107,381626,,,,False,,,,,,,,,
,image-cpt,108,384275,,,,True,,,,,,,,,
,image-cpt,109,386424,,,,False,,,,,,,,,
,image-cpt,110,388574,,,,False,,,,,,,,,
,image-cpt,111,390723,,,,False,,,,,,,,,
,image-cpt,112,393858,,,,True,,,,,,,,,
,image-cpt,113,397490,,,,True,,,,,,,,,
,image-cpt,114,401124,,,,True,,,,,,,,,
,image-cpt,115,404773,,,,False,,,,,,,,,
,image-cpt,116,407423,,,,False,,,,,,,,,
,image-cpt,117,410058,,,,False,,,,,,,,,
,image-cpt,118,412206,,,,False,,,,,,,,,
,image-cpt,119,414356,,,,True,,,,,,,,,
,image-cpt,120,417008,,,,False,,,,,,,,,
,image-cpt,121,419627,,,,False,,,,,,,,,
,image-cpt,122,422274,,,,False,,,,,,,,,
,image-cpt,123,425908,,,,False,,,,,,,,,
,image-cpt,124,429542,,,,True,,,,,,,,,
,image-cpt,125,431675,,,,True,,,,,,,,,
,image-cpt,126,434824,,,,False,,,,,,,,,
,image-cpt,127,436972,,,,True,,,,,,,,,
,image-cpt,128,440624,,,,False,,,,,,,,,
,image-cpt,129,442774,,,,True,,,,,,,,,
,image-cpt,130,444923,,,,False,,,,,,,,,
,image-cpt,131,447057,,,,True,,,,,,,,,
,image-cpt,132,450691,,,,True,,,,,,,,,
,image-cpt,133,452840,,,,False,,,,,,,,,
,image-cpt,134,456474,,,,False,,,,,,,,,
,image-cpt,135,459107,,,,False,,,,,,,,,
,image-cpt,136,461256,,,,False,,,,,,,,,
,image-cpt,137,464406,,,,False,,,,,,,,,
,image-cpt,138,467056,,,,False,,,,,,,,,
,image-cpt,139,470690,,,,False,,,,,,,,,
,image-cpt,140,473323,,,,False,,,,,,,,,
,image-cpt,141,475472,,,,True,,,,,,,,,
,image-cpt,142,479096,,,,False,,,,,,,,,
,image-cpt,143,482729,,,,False,,,,,,,,,
,image-cpt,144,484878,,,,False,,,,,,,,,
,image-cpt,145,488514,,,,False,,,,,,,,,
,image-cpt,146,491161,,,,True,,,,,,,,,
,image-cpt,147,494295,,,,True,,,,,,,,,
,image-cpt,148,496444,,,,False,,,,,,,,,
,image-cpt,149,499578,,,,True,,,,,,,,,
,image-cpt,150,503212,,,,False,,,,,,,,,
,image-cpt,151,505345,,,,True,,,,,,,,,
,image-cpt,152,508494,,,,False,,,,,,,,,
,image-cpt,153,512128,,,,False,,,,,,,,,
,image-cpt,154,514761,,,,True,,,,,,,,,
,image-cpt,155,517910,,,,False,,,,,,,,,
,image-cpt,156,521544,,,,True,,,,,,,,,
,image-cpt,157,522576,,,,False,,,,,,,,,
,image-cpt,158,526211,,,,False,,,,,,,,,
,image-cpt,159,528344,,,,False,,,,,,,,,
,image-cpt,160,530993,,,,True,,,,,,,,,
,image-cpt,161,533626,,,,False,,,,,,,,,
,image-cpt,162,535760,,,,False,,,,,,,,,
,image-cpt,163,537923,,,,True,,,,,,,,,
,image-cpt,164,541073,,,,False,,,,,,,,,
,image-cpt,165,544207,,,,False,,,,,,,,,
,image-cpt,166,546856,,,,True,,,,,,,,,
,image-cpt,167,549991,,,,False,,,,,,,,,
,image-cpt,168,553137,,,,True,,,,,,,,,
,image-cpt,169,556289,,,,False,,,,,,,,,
,image-cpt,170,559939,,,,False,,,,,,,,,
,image-cpt,171,563073,,,,False,,,,,,,,,
,image-cpt,172,566222,,,,False,,,,,,,,,
,image-cpt,173,568371,,,,True,,,,,,,,,
,image-cpt,174,571005,,,,False,,,,,,,,,
,image-cpt,175,574639,,,,True,,,,,,,,,
,image-cpt,176,577288,,,,False,,,,,,,,,
,image-cpt,177,580422,,,,False,,,,,,,,,
,image-cpt,178,583056,,,,True,,,,,,,,,
,image-cpt,179,586689,,,,False,,,,,,,,,
,image-cpt,180,588822,,,,False,,,,,,,,,
,image-cpt,181,591455,,,,False,,,,,,,,,
,image-cpt,182,593604,,,,False,,,,,,,,,
,image-cpt,183,595754,,,,False,,,,,,,,,
,image-cpt,184,598905,,,,False,,,,,,,,,
,image-cpt,185,601041,,,,False,,,,,,,,,
,image-cpt,186,603189,,,,True,,,,,,,,,
,image-cpt,187,605823,,,,False,,,,,,,,,
,image-cpt,188,607972,,,,True,,,,,,,,,
,image-cpt,189,610122,,,,False,,,,,,,,,
,image-cpt,190,613772,,,,False,,,,,,,,,
,image-cpt,191,617421,,,,False,,,,,,,,,
,image-cpt,192,620056,,,,False,,,,,,,,,
,image-cpt,193,622205,,,,False,,,,,,,,,
,image-cpt,194,625354,,,,False,,,,,,,,,
,image-cpt,195,628004,,,,True,,,,,,,,,
,image-cpt,196,630654,,,,False,,,,,,,,,
,image-cpt,197,634290,,,,False,,,,,,,,,
,image-cpt,198,636937,,,,False,,,,,,,,,
,image-cpt,199,639587,,,,True,,,,,,,,,
,image-cpt,200,643237,,,,True,,,,,,,,,
,image-cpt,201,646387,,,,False,,,,,,,,,
,image-cpt,202,650037,,,,False,,,,,,,,,
,image-cpt,203,653187,,,,False,,,,,,,,,
,image-cpt,204,656320,,,,True,,,,,,,,,
,image-cpt,205,658956,,,,True,,,,,,,,,
,image-cpt,206,662589,,,,True,,,,,,,,,
,image-cpt,207,664738,,,,False,,,,,,,,,
,image-cpt,208,667875,,,,False,,,,,,,,,
,image-cpt,209,671506,,,,False,,,,,,,,,
,image-cpt,210,673655,,,,True,,,,,,,,,
,image-cpt,211,676804,,,,True,,,,,,,,,
,image-cpt,212,680454,,,,True,,,,,,,,,
,image-cpt,213,683604,,,,False,,,,,,,,,
,image-cpt,214,686254,,,,False,,,,,,,,,
,image-cpt,215,689388,,,,False,,,,,,,,,
,image-cpt,216,692522,,,,False,,,,,,,,,
,image-cpt,217,695670,,,,False,,,,,,,,,
,image-cpt,218,697820,,,,False,,,,,,,,,
,image-cpt,219,700470,,,,True,,,,,,,,,
,image-cpt,220,702620,,,,False,,,,,,,,,
,image-cpt,221,705256,,,,False,,,,,,,,,
,image-cpt,222,708902,,,,True,,,,,,,,,
,image-cpt,223,712053,,,,True,,,,,,,,,
,image-cpt,224,714202,,,,False,,,,,,,,,
,image-cpt,225,716337,,,,False,,,,,,,,,
,image-cpt,226,719488,,,,False,,,,,,,,,
,image-cpt,227,722637,,,,False,,,,,,,,,
,image-cpt,228,725288,,,,False,,,,,,,,,
,image-cpt,229,727937,,,,True,,,,,,,,,
,image-cpt,230,731087,,,,True,,,,,,,,,
,image-cpt,231,734737,,,,False,,,,,,,,,
,image-cpt,232,737887,,,,False,,,,,,,,,
,image-cpt,233,740537,,,,False,,,,,,,,,
,image-cpt,234,742688,,,,False,,,,,,,,,
,image-cpt,235,745336,,,,True,,,,,,,,,
,image-cpt,236,747486,,,,False,,,,,,,,,
,image-cpt,237,749637,,,,True,,,,,,,,,
,image-cpt,238,751770,,,,True,,,,,,,,,
,image-cpt,239,754404,,,,False,,,,,,,,,
,image-cpt,240,756553,,,,False,,,,,,,,,
,image-cpt,241,760187,,,,True,,,,,,,,,
,image-cpt,242,763335,,,,False,,,,,,,,,
,image-cpt,243,766470,,,,True,,,,,,,,,
,image-cpt,244,770119,,,,False,,,,,,,,,
,image-cpt,245,772271,,,,True,,,,,,,,,
,image-cpt,246,775918,,,,False,,,,,,,,,
,image-cpt,247,779071,,,,False,,,,,,,,,
,image-cpt,248,782705,,,,False,,,,,,,,,
,image-cpt,249,785354,,,,False,,,,,,,,,
,image-cpt,250,787504,,,,False,,,,,,,,,
,image-cpt,251,790639,,,,False,,,,,,,,,
,image-cpt,252,793272,,,,True,,,,,,,,,
,image-cpt,253,796405,,,,False,,,,,,,,,
,image-cpt,254,800038,,,,False,,,,,,,,,
,image-cpt,255,802672,,,,False,,,,,,,,,
,image-cpt,256,806305,,,,False,,,,,,,,,
,image-cpt,257,808437,,,,False,,,,,,,,,
,image-cpt,258,811587,,,,False,,,,,,,,,
,image-cpt,259,814737,,,,False,,,,,,,,,
,image-cpt,260,818387,,,,True,,,,,,,,,
,image-cpt,261,822021,,,,False,,,,,,,,,
,image-cpt,262,824654,,,,False,,,,,,,,,
,image-cpt,263,826803,,,,False,,,,,,,,,
,image-cpt,264,829952,,,,False,,,,,,,,,
,image-cpt,265,833603,,,,False,,,,,,,,,
,image-cpt,266,836237,,,,False,,,,,,,,,
,image-cpt,267,838870,,,,False,,,,,,,,,
,image-cpt,268,841007,,,,True,,,,,,,,,
,image-cpt,269,844642,,,,True,,,,,,,,,
,image-cpt,270,848275,,,,True,,,,,,,,,
,image-cpt,271,850909,,,,False,,,,,,,,,
,image-cpt,272,854541,,,,False,,,,,,,,,
,image-cpt,273,857190,,,,False,,,,,,,,,
,image-cpt,274,860325,,,,False,,,,,,,,,
,image-cpt,275,863957,,,,False,,,,,,,,,
,image-cpt,276,866606,,,,True,,,,,,,,,
,image-cpt,277,868756,,,,True,,,,,,,,,
,image-cpt,278,870891,,,,True,,,,,,,,,
,image-cpt,279,874524,,,,False,,,,,,,,,
,image-cpt,280,877672,,,,False,,,,,,,,,
,image-cpt,281,880308,,,,True,,,,,,,,,
,image-cpt,282,882456,,,,False,,,,,,,,,
,image-cpt,283,885090,,,,False,,,,,,,,,
,image-cpt,284,888724,,,,False,,,,,,,,,
,image-cpt,285,891357,,,,False,,,,,,,,,
,image-cpt,286,893490,,,,True,,,,,,,,,
,image-cpt,287,896639,,,,False,,,,,,,,,
,image-cpt,288,899288,,,,False,,,,,,,,,
,image-cpt,289,902921,,,,False,,,,,,,,,
,image-cpt,290,905070,,,,True,,,,,,,,,
,image-cpt,291,908719,,,,True,,,,,,,,,
,image-cpt,292,910853,,,,True,,,,,,,,,
,image-cpt,293,913005,,,,False,,,,,,,,,
,image-cpt,294,916653,,,,False,,,,,,,,,
,image-cpt,295,919806,,,,False,,,,,,,,,
,image-cpt,296,923436,,,,True,,,,,,,,,
,image-cpt,297,925570,,,,False,,,,,,,,,
,image-cpt,298,928219,,,,True,,,,,,,,,
,image-cpt,299,931853,,,,True,,,,,,,,,
,image-cpt,300,934002,,,,False,,,,,,,,,
,image-cpt,301,937636,,,,False,,,,,,,,,
,image-cpt,302,941285,,,,True,,,,,,,,,
,image-cpt,303,944419,,,,False,,,,,,,,,
,image-cpt,304,947068,,,,True,,,,,,,,,
,image-cpt,305,949218,,,,False,,,,,,,,,
,image-cpt,306,951868,,,,False,,,,,,,,,
,image-cpt,307,954018,,,,False,,,,,,,,,
,image-cpt,308,957168,,,,False,,,,,,,,,
,image-cpt,309,960803,,,,True,,,,,,,,,
,image-cpt,310,963436,,,,False,,,,,,,,,
,image-cpt,311,966084,,,,False,,,,,,,,,
,image-cpt,312,969734,,,,False,,,,,,,,,
,image-cpt,313,972384,,,,True,,,,,,,,,
,image-cpt,314,974534,,,,False,,,,,,,,,
,image-cpt,315,977668,,,,False,,,,,,,,,
,image-cpt,316,979801,,,,False,,,,,,,,,
,image-cpt,317,981950,,,,False,,,,,,,,,
,image-cpt,318,985585,,,,False,,,,,,,,,
,image-cpt,319,989218,,,,False,,,,,,,,,
,image-cpt,320,992367,,,,True,,,,,,,,,
,image-cpt,321,995000,,,,False,,,,,,,,,
,image-cpt,322,997634,,,,True,,,,,,,,,
,image-cpt,323,999783,,,,False,,,,,,,,,
,image-cpt,324,1003417,,,,True,,,,,,,,,
,image-cpt,325,1006051,,,,False,,,,,,,,,
,image-cpt,326,1008199,,,,False,,,,,,,,,
,image-cpt,327,1010349,,,,False,,,,,,,,,
,image-cpt,328,1013998,,,,False,,,,,,,,,
,image-cpt,329,1016633,,,,True,,,,,,,,,
,image-cpt,330,1019782,,,,False,,,,,,,,,
,image-cpt,331,1022419,,,,False,,,,,,,,,
,image-cpt,332,1026052,,,,False,,,,,,,,,
,image-cpt,333,1028201,,,,False,,,,,,,,,
,image-cpt,334,1031835,,,,False,,,,,,,,,
,image-cpt,335,1034984,,,,False,,,,,,,,,
,image-cpt,336,1038633,,,,False,,,,,,,,,
,image-cpt,337,1040783,,,,False,,,,,,,,,
,image-cpt,338,1043433,,,,True,,,,,,,,,
,image-cpt,339,1046068,,,,False,,,,,,,,,
,image-cpt,340,1049216,,,,False,,,,,,,,,
,image-cpt,341,1051851,,,,False,,,,,,,,,
93895.0,instructions,342,1145746,,,,,,,,,,,,,
2154.800000011921,bRMS,343,1148408,,,P,,images/rms/f42887_e_001.jpg,training,1.0,400.0,True,False,0.0,63.0,63.0
895.6000000238419,bRMS,344,1150160,,,P,,images/rms/f42887_e_001.jpg,training,0.0,400.0,True,True,0.0,63.0,63.0
973.0,bRMS,345,1151959,,,P,,images/rms/f42887_e_001.jpg,training,0.0,400.0,True,True,0.0,63.0,63.0
694.0,bRMS,346,1153460,,,P,,images/rms/f42887_e_001.jpg,training,0.0,400.0,True,True,0.0,63.0,63.0
541.0999999642372,bRMS,347,1154825,,,P,,images/rms/f42887_e_001.jpg,training,0.0,400.0,True,True,0.0,63.0,63.0
1018.5999999642372,bRMS,348,1156710,,,P,,images/rms/f42887_e_001.jpg,training,0.0,400.0,True,True,0.0,63.0,63.0
552.3000000119209,bRMS,349,1158093,,,P,,images/rms/f42887_e_001.jpg,training,0.0,400.0,True,True,0.0,63.0,63.0
816.2000000476837,bRMS,350,1159726,,,Q,,images/rms/f42887_e_001.jpg,training,1.0,400.0,True,True,0.0,63.0,63.0
508.9000000357628,bRMS,351,1161043,,,P,,images/rms/f42887_e_001.jpg,training,0.0,400.0,True,True,0.0,63.0,63.0
624.1999999880791,bRMS,352,1162492,,,P,,images/rms/f42887_e_001.jpg,training,0.0,400.0,True,True,0.0,63.0,63.0
470.10000002384186,bRMS,353,1163807,,,P,,images/rms/f42887_e_001.jpg,training,0.0,400.0,True,True,0.0,63.0,63.0
404.9000000357628,bRMS,354,1165027,,,P,,images/rms/f42887_e_001.jpg,training,0.0,400.0,True,True,0.0,63.0,63.0
785.8000000119209,bRMS,355,1166659,,,Q,,images/rms/f42887_e_001.jpg,training,1.0,400.0,True,True,0.0,63.0,63.0
807.2999999523163,bRMS,356,1168277,,,Q,,images/rms/f42887_e_001.jpg,training,1.0,400.0,True,True,0.0,63.0,63.0
701.0,bRMS,357,1169809,,,Q,,images/rms/f42887_e_001.jpg,training,1.0,400.0,True,True,0.0,63.0,63.0
513.5999999642372,bRMS,358,1171160,,,P,,images/rms/f42887_e_001.jpg,training,0.0,400.0,True,True,0.0,63.0,63.0
18575.0,instructions,359,1190143,,,,,,,,,,,,,
1357.5999999642372,bRMS,360,1191898,,,P,,images/rms/f42887_e_103_1.jpg,reversed,0.0,400.0,True,True,0.0,63.0,63.0
761.8000000119209,bRMS,361,1193475,,,P,,images/rms/f42887_e_161.jpg,main,0.0,400.0,True,True,0.0,63.0,63.0
1056.5,bRMS,362,1195338,,,Q,,images/rms/f42887_e_293_1.jpg,reversed,1.0,400.0,True,True,0.0,63.0,63.0
867.5,bRMS,363,1197034,,,Q,,images/rms/f42887_e_080.jpg,main,1.0,400.0,True,True,0.0,63.0,63.0
722.0999999642372,bRMS,364,1198594,,,P,,images/rms/f42887_e_072.jpg,main,0.0,400.0,True,True,0.0,63.0,63.0
712.3000000119209,bRMS,365,1200138,,,Q,,images/rms/f42887_e_278.jpg,main,1.0,400.0,True,True,0.0,63.0,63.0
538.1000000238419,bRMS,366,1201506,,,P,,images/rms/f42887_e_053_1.jpg,reversed,0.0,400.0,True,True,0.0,63.0,63.0
629.5,bRMS,367,1202954,,,P,,images/rms/f42887_e_028.jpg,main,0.0,400.0,True,True,0.0,63.0,63.0
704.7999999523163,bRMS,368,1204461,,,Q,,images/rms/f42887_e_293.jpg,main,1.0,400.0,True,True,0.0,63.0,63.0
807.3999999761581,bRMS,369,1206097,,,Q,,images/rms/f42887_e_297.jpg,main,1.0,400.0,True,True,0.0,63.0,63.0
559.9000000357628,bRMS,370,1207474,,,P,,images/rms/f42887_e_241.jpg,main,0.0,400.0,True,True,0.0,63.0,63.0
608.8000000119209,bRMS,371,1208930,,,Q,,images/rms/f42887_e_001.jpg,main,1.0,400.0,True,True,0.0,63.0,63.0
821.3000000119209,bRMS,372,1210562,,,P,,images/rms/f42887_e_058.jpg,main,0.0,400.0,True,True,0.0,63.0,63.0
753.9000000357628,bRMS,373,1212146,,,Q,,images/rms/f42887_e_005.jpg,main,1.0,400.0,True,True,0.0,63.0,63.0
834.4000000357628,bRMS,374,1213826,,,P,,images/rms/f42887_e_121_1.jpg,reversed,0.0,400.0,True,True,0.0,63.0,63.0
1092.800000011921,bRMS,375,1215794,,,Q,,images/rms/f42887_e_058_1.jpg,reversed,1.0,400.0,True,True,0.0,63.0,63.0
685.5,bRMS,376,1217306,,,P,,images/rms/f42887_e_259.jpg,main,0.0,400.0,True,True,0.0,63.0,63.0
800.1000000238419,bRMS,377,1218913,,,P,,images/rms/f42887_e_298.jpg,main,0.0,400.0,True,True,0.0,63.0,63.0
705.8000000119209,bRMS,378,1220442,,,P,,images/rms/f42887_e_202.jpg,main,0.0,400.0,True,True,0.0,63.0,63.0
671.3000000119209,bRMS,379,1221962,,,Q,,images/rms/f42887_e_064_1.jpg,reversed,1.0,400.0,True,True,0.0,63.0,63.0
1014.3000000119208,bRMS,380,1223795,,,Q,,images/rms/f42887_e_180_1.jpg,reversed,1.0,400.0,True,True,0.0,63.0,63.0
832.0999999642372,bRMS,381,1225473,,,Q,,images/rms/f42887_e_295.jpg,main,1.0,400.0,True,True,0.0,63.0,63.0
992.1999999880792,bRMS,382,1227289,,,P,,images/rms/f42887_e_080_1.jpg,reversed,0.0,400.0,True,True,0.0,63.0,63.0
985.600000023842,bRMS,383,1229114,,,P,,images/rms/f42887_e_298_1.jpg,reversed,0.0,400.0,True,True,0.0,63.0,63.0
556.0,bRMS,384,1230511,,,P,,images/rms/f42887_e_259_1.jpg,reversed,0.0,400.0,True,True,0.0,63.0,63.0
576.6000000238419,bRMS,385,1231962,,,P,,images/rms/f42887_e_140_1.jpg,reversed,0.0,400.0,True,True,0.0,63.0,63.0
595.5999999642372,bRMS,386,1233377,,,P,,images/rms/f42887_e_296_1.jpg,reversed,0.0,400.0,True,True,0.0,63.0,63.0
620.3999999761581,bRMS,387,1234809,,,P,,images/rms/f42887_e_072_1.jpg,reversed,0.0,400.0,True,True,0.0,63.0,63.0
617.7000000476837,bRMS,388,1236249,,,Q,,images/rms/f42887_e_064.jpg,main,1.0,400.0,True,True,0.0,63.0,63.0
582.3000000119209,bRMS,389,1237645,,,P,,images/rms/f42887_e_156.jpg,main,0.0,400.0,True,True,0.0,63.0,63.0
632.6000000238419,bRMS,390,1239106,,,P,,images/rms/f42887_e_258.jpg,main,0.0,400.0,True,True,0.0,63.0,63.0
691.5,bRMS,391,1240611,,,P,,images/rms/f42887_e_289_1.jpg,reversed,0.0,400.0,True,True,0.0,63.0,63.0
672.5999999642372,bRMS,392,1242110,,,P,,images/rms/f42887_e_025_1.jpg,reversed,1.0,400.0,True,False,0.0,63.0,63.0
1535.5999999642372,bRMS,393,1244446,,,Q,,images/rms/f42887_e_296.jpg,main,1.0,400.0,True,True,0.0,63.0,63.0
566.6999999880791,bRMS,394,1245874,,,P,,images/rms/f42887_e_161_1.jpg,reversed,0.0,400.0,True,True,0.0,63.0,63.0
690.1999999880791,bRMS,395,1247410,,,Q,,images/rms/f42887_e_202_1.jpg,reversed,1.0,400.0,True,True,0.0,63.0,63.0
1072.0,bRMS,396,1249295,,,Q,,images/rms/f42887_e_025.jpg,main,1.0,400.0,True,True,0.0,63.0,63.0
870.0,bRMS,397,1250986,,,Q,,images/rms/f42887_e_241_1.jpg,reversed,1.0,400.0,True,True,0.0,63.0,63.0
795.9000000357628,bRMS,398,1252586,,,Q,,images/rms/f42887_e_053.jpg,main,1.0,400.0,True,True,0.0,63.0,63.0
731.7000000476837,bRMS,399,1254112,,,P,,images/rms/f42887_e_103.jpg,main,0.0,400.0,True,True,0.0,63.0,63.0
940.9000000357628,bRMS,400,1255858,,,Q,,images/rms/f42887_e_127.jpg,main,1.0,400.0,True,True,0.0,63.0,63.0
588.6000000238419,bRMS,401,1257264,,,P,,images/rms/f42887_e_278_1.jpg,reversed,0.0,400.0,True,True,0.0,63.0,63.0
693.8999999761581,bRMS,402,1258780,,,Q,,images/rms/f42887_e_245_1.jpg,reversed,1.0,400.0,True,True,0.0,63.0,63.0
1146.199999988079,bRMS,403,1260747,,,Q,,images/rms/f42887_e_295_1.jpg,reversed,1.0,400.0,True,True,0.0,63.0,63.0
1571.899999976158,bRMS,404,1263138,,,Q,,images/rms/f42887_e_098.jpg,main,1.0,400.0,True,True,0.0,63.0,63.0
822.0,bRMS,405,1264786,,,Q,,images/rms/f42887_e_015.jpg,main,1.0,400.0,True,True,0.0,63.0,63.0
804.9000000357628,bRMS,406,1266415,,,Q,,images/rms/f42887_e_015_1.jpg,reversed,1.0,400.0,True,True,0.0,63.0,63.0
711.5999999642372,bRMS,407,1267924,,,P,,images/rms/f42887_e_258_1.jpg,reversed,0.0,400.0,True,True,0.0,63.0,63.0
619.1999999880791,bRMS,408,1269381,,,Q,,images/rms/f42887_e_245.jpg,main,1.0,400.0,True,True,0.0,63.0,63.0
985.3000000119208,bRMS,409,1271171,,,Q,,images/rms/f42887_e_028_1.jpg,reversed,1.0,400.0,True,True,0.0,63.0,63.0
755.0,bRMS,410,1272731,,,P,,images/rms/f42887_e_180.jpg,main,0.0,400.0,True,True,0.0,63.0,63.0
843.3000000119209,bRMS,411,1274395,,,Q,,images/rms/f42887_e_127_1.jpg,reversed,1.0,400.0,True,True,0.0,63.0,63.0
677.5,bRMS,412,1275907,,,P,,images/rms/f42887_e_297_1.jpg,reversed,0.0,400.0,True,True,0.0,63.0,63.0
599.3000000119209,bRMS,413,1277315,,,P,,images/rms/f42887_e_001_1.jpg,reversed,0.0,400.0,True,True,0.0,63.0,63.0
673.3000000119209,bRMS,414,1278811,,,Q,,images/rms/f42887_e_252_1.jpg,reversed,1.0,400.0,True,True,0.0,63.0,63.0
713.6999999880791,bRMS,415,1280340,,,Q,,images/rms/f42887_e_156_1.jpg,reversed,1.0,400.0,True,True,0.0,63.0,63.0
916.1999999880792,bRMS,416,1282097,,,P,,images/rms/f42887_e_252.jpg,main,0.0,400.0,True,True,0.0,63.0,63.0
918.8000000119208,bRMS,417,1283827,,,Q,,images/rms/f42887_e_005_1.jpg,reversed,1.0,400.0,True,True,0.0,63.0,63.0
1259.5,bRMS,418,1285897,,,Q,,images/rms/f42887_e_289.jpg,main,1.0,400.0,True,True,0.0,63.0,63.0
784.3000000119209,bRMS,419,1287491,,,Q,,images/rms/f42887_e_098_1.jpg,reversed,1.0,400.0,True,True,0.0,63.0,63.0
791.8000000119209,bRMS,420,1289092,,,Q,,images/rms/f42887_e_121.jpg,main,1.0,400.0,True,True,0.0,63.0,63.0
638.6000000238419,bRMS,421,1290555,,,Q,,images/rms/f42887_e_140.jpg,main,1.0,400.0,True,True,0.0,63.0,63.0
21180.0,instructions,422,1312150,,,,,,,,,,,,,
2427.699999988079,bRMS,423,1315004,,,Q,,images/rms/f42887_e_005.jpg,control_main,1.0,400.0,True,True,0.0,63.0,63.0
904.1999999880792,bRMS,424,1316711,,,P,,images/rms/f42887_e_053.jpg,control_main,0.0,400.0,True,True,0.0,63.0,63.0
859.1999999880791,bRMS,425,1318404,,,P,,images/rms/f42887_e_098.jpg,control_main,0.0,400.0,True,True,0.0,63.0,63.0
891.6000000238419,bRMS,426,1320112,,,P,,images/rms/f42887_e_180_1.jpg,control_reversed,0.0,400.0,True,True,0.0,63.0,63.0
590.5999999642372,bRMS,427,1321540,,,P,,images/rms/f42887_e_001.jpg,control_main,0.0,400.0,True,True,0.0,63.0,63.0
805.6999999880791,bRMS,428,1323171,,,Q,,images/rms/f42887_e_028_1.jpg,control_reversed,1.0,400.0,True,True,0.0,63.0,63.0
665.5,bRMS,429,1324644,,,P,,images/rms/f42887_e_289.jpg,control_main,0.0,400.0,True,True,0.0,63.0,63.0
831.7000000476837,bRMS,430,1326301,,,P,,images/rms/f42887_e_298_1.jpg,control_reversed,0.0,400.0,True,True,0.0,63.0,63.0
674.8000000119209,bRMS,431,1327797,,,P,,images/rms/f42887_e_053_1.jpg,control_reversed,0.0,400.0,True,True,0.0,63.0,63.0
915.6999999880792,bRMS,432,1329530,,,Q,,images/rms/f42887_e_025.jpg,control_main,1.0,400.0,True,True,0.0,63.0,63.0
778.6999999880791,bRMS,433,1331141,,,Q,,images/rms/f42887_e_293_1.jpg,control_reversed,1.0,400.0,True,True,0.0,63.0,63.0
625.1999999880791,bRMS,434,1332581,,,P,,images/rms/f42887_e_103.jpg,control_main,0.0,400.0,True,True,0.0,63.0,63.0
673.0999999642372,bRMS,435,1334069,,,Q,,images/rms/f42887_e_245.jpg,control_main,1.0,400.0,True,True,0.0,63.0,63.0
1942.0,bRMS,436,1336810,,,Q,,images/rms/f42887_e_140_1.jpg,control_reversed,1.0,400.0,True,True,0.0,63.0,63.0
867.1999999880791,bRMS,437,1338493,,,Q,,images/rms/f42887_e_245_1.jpg,control_reversed,1.0,400.0,True,True,0.0,63.0,63.0
759.8999999761581,bRMS,438,1340061,,,P,,images/rms/f42887_e_252_1.jpg,control_reversed,0.0,400.0,True,True,0.0,63.0,63.0
1062.399999976158,bRMS,439,1341925,,,P,,images/rms/f42887_e_005_1.jpg,control_reversed,0.0,400.0,True,True,0.0,63.0,63.0
603.7000000476837,bRMS,440,1343357,,,Q,,images/rms/f42887_e_080_1.jpg,control_reversed,1.0,400.0,True,True,0.0,63.0,63.0
1396.0,bRMS,441,1345573,,,Q,,images/rms/f42887_e_072.jpg,control_main,1.0,400.0,True,True,0.0,63.0,63.0
1512.699999988079,bRMS,442,1347925,,,Q,,images/rms/f42887_e_296_1.jpg,control_reversed,1.0,400.0,True,True,0.0,63.0,63.0
498.5999999642372,bRMS,443,1349245,,,P,,images/rms/f42887_e_156.jpg,control_main,0.0,400.0,True,True,0.0,63.0,63.0
501.10000002384186,bRMS,444,1350573,,,P,,images/rms/f42887_e_202_1.jpg,control_reversed,0.0,400.0,True,True,0.0,63.0,63.0
620.3999999761581,bRMS,445,1352013,,,P,,images/rms/f42887_e_121_1.jpg,control_reversed,0.0,400.0,True,True,0.0,63.0,63.0
558.1999999880791,bRMS,446,1353389,,,Q,,images/rms/f42887_e_103_1.jpg,control_reversed,1.0,400.0,True,True,0.0,63.0,63.0
652.0,bRMS,447,1354837,,,P,,images/rms/f42887_e_127_1.jpg,control_reversed,0.0,400.0,True,True,0.0,63.0,63.0
808.4000000357628,bRMS,448,1356461,,,Q,,images/rms/f42887_e_080.jpg,control_main,1.0,400.0,True,True,0.0,63.0,63.0
1263.199999988079,bRMS,449,1358529,,,Q,,images/rms/f42887_e_064_1.jpg,control_reversed,1.0,400.0,True,True,0.0,63.0,63.0
566.7000000476837,bRMS,450,1359941,,,Q,,images/rms/f42887_e_001_1.jpg,control_reversed,1.0,400.0,True,True,0.0,63.0,63.0
727.7000000476837,bRMS,451,1361493,,,Q,,images/rms/f42887_e_058.jpg,control_main,1.0,400.0,True,True,0.0,63.0,63.0
1015.5,bRMS,452,1363328,,,Q,,images/rms/f42887_e_259_1.jpg,control_reversed,1.0,400.0,True,True,0.0,63.0,63.0
959.6999999880792,bRMS,453,1365125,,,P,,images/rms/f42887_e_072_1.jpg,control_reversed,0.0,400.0,True,True,0.0,63.0,63.0
602.5,bRMS,454,1366545,,,Q,,images/rms/f42887_e_064.jpg,control_main,1.0,400.0,True,True,0.0,63.0,63.0
713.3999999761581,bRMS,455,1368077,,,Q,,images/rms/f42887_e_015.jpg,control_main,1.0,400.0,True,True,0.0,63.0,63.0
793.1000000238419,bRMS,456,1369678,,,Q,,images/rms/f42887_e_259.jpg,control_main,1.0,400.0,True,True,0.0,63.0,63.0
647.5,bRMS,457,1371145,,,P,,images/rms/f42887_e_127.jpg,control_main,0.0,400.0,True,True,0.0,63.0,63.0
600.0,bRMS,458,1372579,,,P,,images/rms/f42887_e_140.jpg,control_main,0.0,400.0,True,True,0.0,63.0,63.0
836.1000000238419,bRMS,459,1374244,,,P,,images/rms/f42887_e_161.jpg,control_main,0.0,400.0,True,True,0.0,63.0,63.0
763.1999999880791,bRMS,460,1375821,,,P,,images/rms/f42887_e_296.jpg,control_main,0.0,400.0,True,True,0.0,63.0,63.0
830.0,bRMS,461,1377477,,,Q,,images/rms/f42887_e_293.jpg,control_main,1.0,400.0,True,True,0.0,63.0,63.0
530.6000000238419,bRMS,462,1378829,,,P,,images/rms/f42887_e_161_1.jpg,control_reversed,0.0,400.0,True,True,0.0,63.0,63.0
668.8000000119209,bRMS,463,1380325,,,P,,images/rms/f42887_e_015_1.jpg,control_reversed,0.0,400.0,True,True,0.0,63.0,63.0
984.100000023842,bRMS,464,1382133,,,Q,,images/rms/f42887_e_258_1.jpg,control_reversed,1.0,400.0,True,True,0.0,63.0,63.0
661.8999999761581,bRMS,465,1383611,,,Q,,images/rms/f42887_e_258.jpg,control_main,1.0,400.0,True,True,0.0,63.0,63.0
1678.300000011921,bRMS,466,1386102,,,Q,,images/rms/f42887_e_202.jpg,control_main,1.0,400.0,True,True,0.0,63.0,63.0
1108.5,bRMS,467,1388022,,,Q,,images/rms/f42887_e_289_1.jpg,control_reversed,1.0,400.0,True,True,0.0,63.0,63.0
875.8999999761581,bRMS,468,1389729,,,Q,,images/rms/f42887_e_098_1.jpg,control_reversed,1.0,400.0,True,True,0.0,63.0,63.0
857.6999999880791,bRMS,469,1391396,,,Q,,images/rms/f42887_e_252.jpg,control_main,1.0,400.0,True,True,0.0,63.0,63.0
588.4000000357628,bRMS,470,1392809,,,P,,images/rms/f42887_e_028.jpg,control_main,0.0,400.0,True,True,0.0,63.0,63.0
980.0,bRMS,471,1394611,,,Q,,images/rms/f42887_e_241_1.jpg,control_reversed,1.0,400.0,True,True,0.0,63.0,63.0
556.6999999880791,bRMS,472,1395991,,,P,,images/rms/f42887_e_295.jpg,control_main,0.0,400.0,True,True,0.0,63.0,63.0
668.4000000357628,bRMS,473,1397511,,,P,,images/rms/f42887_e_025_1.jpg,control_reversed,0.0,400.0,True,True,0.0,63.0,63.0
956.9000000357628,bRMS,474,1399278,,,P,,images/rms/f42887_e_180.jpg,control_main,0.0,400.0,True,True,0.0,63.0,63.0
776.6000000238419,bRMS,475,1400862,,,P,,images/rms/f42887_e_241.jpg,control_main,0.0,400.0,True,True,0.0,63.0,63.0
693.1999999880791,bRMS,476,1402391,,,P,,images/rms/f42887_e_156_1.jpg,control_reversed,0.0,400.0,True,True,0.0,63.0,63.0
822.7999999523163,bRMS,477,1404023,,,Q,,images/rms/f42887_e_297_1.jpg,control_reversed,1.0,400.0,True,True,0.0,63.0,63.0
855.9000000357628,bRMS,478,1405719,,,Q,,images/rms/f42887_e_058_1.jpg,control_reversed,1.0,400.0,True,True,0.0,63.0,63.0
766.0999999642372,bRMS,479,1407326,,,P,,images/rms/f42887_e_278_1.jpg,control_reversed,0.0,400.0,True,True,0.0,63.0,63.0
1069.0999999642372,bRMS,480,1409223,,,Q,,images/rms/f42887_e_298.jpg,control_main,1.0,400.0,True,True,0.0,63.0,63.0
502.60000002384186,bRMS,481,1410575,,,Q,,images/rms/f42887_e_295_1.jpg,control_reversed,1.0,400.0,True,True,0.0,63.0,63.0
807.5,bRMS,482,1412195,,,Q,,images/rms/f42887_e_278.jpg,control_main,1.0,400.0,True,True,0.0,63.0,63.0
740.5,bRMS,483,1413790,,,Q,,images/rms/f42887_e_121.jpg,control_main,1.0,400.0,True,True,0.0,63.0,63.0
807.0,bRMS,484,1415454,,,P,,images/rms/f42887_e_297.jpg,control_main,0.0,400.0,True,True,0.0,63.0,63.0
7678.0,instructions,485,1423534,,,,,,,,,,,,,
26286.0,survey-likert,486,1449824,"{""Q0"":2,""Q1"":3,""Q2"":1}",ASRS_2_3,,,,,,,,,,,
21284.0,survey-likert,487,1471111,"{""Q0"":2,""Q1"":1,""Q2"":1}",ASRS_1_0,,,,,,,,,,,
23309.0,survey-likert,488,1494423,"{""Q0"":1,""Q1"":2,""Q2"":1}",ASRS_2_9,,,,,,,,,,,
23540.0,survey-likert,489,1517965,"{""Q0"":1,""Q1"":1,""Q2"":2}",ASRS_2_6,,,,,,,,,,,
38197.0,survey-likert,490,1556164,"{""Q0"":3,""Q1"":2,""Q2"":3}",ASRS_1_3,,,,,,,,,,,
37618.0,survey-likert,491,1593786,"{""Q0"":2,""Q1"":2,""Q2"":1}",ASRS_2_0,,,,,,,,,,,
10749.0,survey-likert,492,1604537,"{""Q0"":1}",LAST_1,,,,,,,,,,,
6218.0,survey-multi-choice,493,1610761,"{""Q0"":""לא""}",,,,,,,,,,,,
2045.0,survey-text,494,1612809,"{""Q0"":""""}",,,,,,,,,,,,
9885.0,survey-likert,495,1622696,"{""Q0"":2}",LAST_4,,,,,,,,,,,
2137.0,survey-multi-choice,496,1624840,"{""Q0"":""לא""}",,,,,,,,,,,,
1166.0,survey-text,497,1626008,"{""Q0"":""""}",,,,,,,,,,,,
16341.0,survey-likert,498,1642351,"{""Q0"":2}",DRIVE_1,,,,,,,,,,,
11309.0,survey-text,499,1653662,"{""Q0"":""0""}",,,,,,,,,,,,
12430.0,survey-text,500,1666094,"{""Q0"":""0""}",,,,,,,,,,,,
3255.0,instructions,501,1669350,,,,,,,,,,,,,
