rt,trial_type,trial_index,time_elapsed,responses,name,stimulus,stimulus_block,stimulus_side,key_press,time_post_trial,is_fullscreen,correct,trial_began,block,sub_block,is_stimulus
36116.0,instructions,0,36116,,,,,,,,,,,,,
6814.0,survey-multi-choice,1,42932,"{""Q0"":""אישה"",""Q1"":""ימין"",""Q2"":""עברית""}",,,,,,,,,,,,
3999.0,survey-text,2,46932,"{""Q0"":""24"",""Q1"":""48""}",,,,,,,,,,,,
2159.0,survey-multi-choice,3,49092,"{""Q0"":""לא""}",,,,,,,,,,,,
5295.0,survey-likert,4,54388,"{""Q0"":3}",attention_2,,,,,,,,,,,
33312.0,instructions,5,87700,,,,,,,,,,,,,
823.3999999761581,bRMS,6,88902,,,images/rms/f42887_e_001.jpg,training,0.0,Q,400.0,False,False,0.0,63.0,63.0,
1363.2000000476835,bRMS,7,91046,,,images/rms/f42887_e_001.jpg,training,1.0,Q,400.0,False,True,0.0,63.0,63.0,
1147.7999999523165,bRMS,8,92967,,,images/rms/f42887_e_001.jpg,training,1.0,Q,400.0,False,True,0.0,63.0,63.0,
700.6000000238419,bRMS,9,94446,,,images/rms/f42887_e_001.jpg,training,0.0,P,400.0,False,True,0.0,63.0,63.0,
627.6000000238419,bRMS,10,95846,,,images/rms/f42887_e_001.jpg,training,0.0,P,400.0,False,True,0.0,63.0,63.0,
713.1000000238419,bRMS,11,97344,,,images/rms/f42887_e_001.jpg,training,0.0,P,400.0,False,True,0.0,63.0,63.0,
537.3000000715256,bRMS,12,98662,,,images/rms/f42887_e_001.jpg,training,0.0,P,400.0,False,True,0.0,63.0,63.0,
1212.100000023842,bRMS,13,100647,,,images/rms/f42887_e_001.jpg,training,0.0,P,400.0,False,True,0.0,63.0,63.0,
633.4000000953674,bRMS,14,102063,,,images/rms/f42887_e_001.jpg,training,1.0,Q,400.0,False,True,0.0,63.0,63.0,
609.1000000238419,bRMS,15,103446,,,images/rms/f42887_e_001.jpg,training,1.0,Q,400.0,False,True,0.0,63.0,63.0,
507.60000002384186,bRMS,16,104727,,,images/rms/f42887_e_001.jpg,training,1.0,Q,400.0,False,True,0.0,63.0,63.0,
467.5,bRMS,17,105983,,,images/rms/f42887_e_001.jpg,training,1.0,Q,400.0,False,True,0.0,63.0,63.0,
418.4000000953674,bRMS,18,107183,,,images/rms/f42887_e_001.jpg,training,1.0,Q,400.0,False,True,0.0,63.0,63.0,
515.3999999761581,bRMS,19,108479,,,images/rms/f42887_e_001.jpg,training,1.0,Q,400.0,False,True,0.0,63.0,63.0,
402.0,bRMS,20,109662,,,images/rms/f42887_e_001.jpg,training,1.0,Q,400.0,False,True,0.0,63.0,63.0,
1057.600000023842,bRMS,21,111495,,,images/rms/f42887_e_001.jpg,training,1.0,Q,400.0,False,True,0.0,63.0,63.0,
3617.0,instructions,22,115524,,,,,,,,,,,,,
1090.5,bRMS,23,116983,,,images/rms/f42887_e_053.jpg,main,1.0,Q,400.0,False,True,0.0,63.0,63.0,
826.5999999046326,bRMS,24,118584,,,images/rms/f42887_e_258_1.jpg,reversed,0.0,P,400.0,False,True,0.0,63.0,63.0,
713.3000000715256,bRMS,25,120063,,,images/rms/f42887_e_121.jpg,main,0.0,P,400.0,False,True,0.0,63.0,63.0,
2821.3000000715256,bRMS,26,123655,,,images/rms/f42887_e_298_1.jpg,reversed,0.0,P,400.0,False,True,0.0,63.0,63.0,
1427.2000000476835,bRMS,27,125863,,,images/rms/f42887_e_245_1.jpg,reversed,1.0,Q,400.0,False,True,0.0,63.0,63.0,
825.1000000238419,bRMS,28,127463,,,images/rms/f42887_e_005.jpg,main,0.0,P,400.0,False,True,0.0,63.0,63.0,
569.5,bRMS,29,128807,,,images/rms/f42887_e_180.jpg,main,0.0,P,400.0,False,True,0.0,63.0,63.0,
1344.3000000715256,bRMS,30,130926,,,images/rms/f42887_e_028.jpg,main,0.0,P,400.0,False,True,0.0,63.0,63.0,
649.9000000953674,bRMS,31,132350,,,images/rms/f42887_e_252_1.jpg,reversed,0.0,P,400.0,False,True,0.0,63.0,63.0,
539.7000000476837,bRMS,32,133671,,,images/rms/f42887_e_202_1.jpg,reversed,1.0,Q,400.0,False,True,0.0,63.0,63.0,
1524.399999976158,bRMS,33,135975,,,images/rms/f42887_e_064_1.jpg,reversed,1.0,Q,400.0,False,True,0.0,63.0,63.0,
624.2000000476837,bRMS,34,137375,,,images/rms/f42887_e_202.jpg,main,0.0,P,400.0,False,True,0.0,63.0,63.0,
1003.2000000476836,bRMS,35,139159,,,images/rms/f42887_e_015_1.jpg,reversed,1.0,Q,400.0,False,True,0.0,63.0,63.0,
496.9000000953674,bRMS,36,140447,,,images/rms/f42887_e_156.jpg,main,0.0,P,400.0,False,True,0.0,63.0,63.0,
692.1000000238419,bRMS,37,141911,,,images/rms/f42887_e_293.jpg,main,1.0,Q,400.0,False,True,0.0,63.0,63.0,
554.0,bRMS,38,143239,,,images/rms/f42887_e_259.jpg,main,0.0,P,400.0,False,True,0.0,63.0,63.0,
483.8999999761581,bRMS,39,144511,,,images/rms/f42887_e_058_1.jpg,reversed,0.0,P,400.0,False,True,0.0,63.0,63.0,
943.7000000476836,bRMS,40,146231,,,images/rms/f42887_e_297_1.jpg,reversed,1.0,Q,400.0,False,True,0.0,63.0,63.0,
1147.0,bRMS,41,148144,,,images/rms/f42887_e_058.jpg,main,0.0,P,400.0,False,True,0.0,63.0,63.0,
906.5999999046326,bRMS,42,149830,,,images/rms/f42887_e_259_1.jpg,reversed,0.0,P,400.0,False,True,0.0,63.0,63.0,
2316.100000023842,bRMS,43,152915,,,images/rms/f42887_e_258.jpg,main,0.0,P,400.0,False,True,0.0,63.0,63.0,
610.3000000715256,bRMS,44,154294,,,images/rms/f42887_e_098_1.jpg,reversed,0.0,P,400.0,False,True,0.0,63.0,63.0,
587.2999999523163,bRMS,45,155655,,,images/rms/f42887_e_245.jpg,main,0.0,P,400.0,False,True,0.0,63.0,63.0,
608.4000000953674,bRMS,46,157032,,,images/rms/f42887_e_072.jpg,main,0.0,P,400.0,False,True,0.0,63.0,63.0,
632.2999999523163,bRMS,47,158439,,,images/rms/f42887_e_295_1.jpg,reversed,0.0,P,400.0,False,True,0.0,63.0,63.0,
641.3000000715256,bRMS,48,159863,,,images/rms/f42887_e_127.jpg,main,0.0,P,400.0,False,True,0.0,63.0,63.0,
793.5,bRMS,49,161432,,,images/rms/f42887_e_161_1.jpg,reversed,1.0,Q,400.0,False,True,0.0,63.0,63.0,
601.7999999523163,bRMS,50,162807,,,images/rms/f42887_e_293_1.jpg,reversed,1.0,Q,400.0,False,True,0.0,63.0,63.0,
611.2000000476837,bRMS,51,164197,,,images/rms/f42887_e_296.jpg,main,1.0,Q,400.0,False,True,0.0,63.0,63.0,
504.3000000715256,bRMS,52,165478,,,images/rms/f42887_e_103_1.jpg,reversed,0.0,P,400.0,False,True,0.0,63.0,63.0,
506.09999990463257,bRMS,53,166759,,,images/rms/f42887_e_080_1.jpg,reversed,1.0,Q,400.0,False,True,0.0,63.0,63.0,
994.4000000953674,bRMS,54,168535,,,images/rms/f42887_e_140_1.jpg,reversed,0.0,P,400.0,False,True,0.0,63.0,63.0,
1425.5999999046326,bRMS,55,170743,,,images/rms/f42887_e_297.jpg,main,0.0,P,400.0,False,True,0.0,63.0,63.0,
649.5,bRMS,56,172159,,,images/rms/f42887_e_295.jpg,main,1.0,Q,400.0,False,True,0.0,63.0,63.0,
682.2000000476837,bRMS,57,173631,,,images/rms/f42887_e_080.jpg,main,0.0,P,400.0,False,True,0.0,63.0,63.0,
785.3000000715256,bRMS,58,175190,,,images/rms/f42887_e_025_1.jpg,reversed,0.0,P,400.0,False,True,0.0,63.0,63.0,
554.3999999761581,bRMS,59,176513,,,images/rms/f42887_e_001_1.jpg,reversed,1.0,Q,400.0,False,True,0.0,63.0,63.0,
1440.4000000953674,bRMS,60,178718,,,images/rms/f42887_e_278_1.jpg,reversed,1.0,Q,400.0,False,True,0.0,63.0,63.0,
824.5,bRMS,61,180310,,,images/rms/f42887_e_241.jpg,main,1.0,Q,400.0,False,True,0.0,63.0,63.0,
600.8000000715256,bRMS,62,181687,,,images/rms/f42887_e_064.jpg,main,1.0,Q,400.0,False,True,0.0,63.0,63.0,
2883.6999999284744,bRMS,63,185346,,,images/rms/f42887_e_015.jpg,main,1.0,Q,400.0,False,True,0.0,63.0,63.0,
1040.1999999284744,bRMS,64,187159,,,images/rms/f42887_e_252.jpg,main,0.0,P,400.0,False,True,0.0,63.0,63.0,
525.8000000715256,bRMS,65,188455,,,images/rms/f42887_e_072_1.jpg,reversed,0.0,P,400.0,False,True,0.0,63.0,63.0,
500.8999999761581,bRMS,66,189743,,,images/rms/f42887_e_289_1.jpg,reversed,0.0,P,400.0,False,True,0.0,63.0,63.0,
509.7000000476837,bRMS,67,191032,,,images/rms/f42887_e_053_1.jpg,reversed,1.0,Q,400.0,False,True,0.0,63.0,63.0,
1370.3000000715256,bRMS,68,193174,,,images/rms/f42887_e_289.jpg,main,1.0,Q,400.0,False,True,0.0,63.0,63.0,
458.6999999284744,bRMS,69,194407,,,images/rms/f42887_e_156_1.jpg,reversed,0.0,P,400.0,False,True,0.0,63.0,63.0,
633.8000000715256,bRMS,70,195806,,,images/rms/f42887_e_278.jpg,main,0.0,P,400.0,False,True,0.0,63.0,63.0,
474.2000000476837,bRMS,71,197056,,,images/rms/f42887_e_005_1.jpg,reversed,1.0,Q,400.0,False,True,0.0,63.0,63.0,
536.8999999761581,bRMS,72,198391,,,images/rms/f42887_e_298.jpg,main,1.0,Q,400.0,False,True,0.0,63.0,63.0,
505.5,bRMS,73,199671,,,images/rms/f42887_e_241_1.jpg,reversed,0.0,P,400.0,False,True,0.0,63.0,63.0,
481.60000002384186,bRMS,74,200929,,,images/rms/f42887_e_161.jpg,main,0.0,P,400.0,False,True,0.0,63.0,63.0,
724.0,bRMS,75,202423,,,images/rms/f42887_e_180_1.jpg,reversed,1.0,Q,400.0,False,True,0.0,63.0,63.0,
1008.8000000715256,bRMS,76,204223,,,images/rms/f42887_e_098.jpg,main,1.0,Q,400.0,False,True,0.0,63.0,63.0,
468.8000000715256,bRMS,77,205454,,,images/rms/f42887_e_121_1.jpg,reversed,0.0,P,400.0,False,True,0.0,63.0,63.0,
585.2000000476837,bRMS,78,206806,,,images/rms/f42887_e_001.jpg,main,1.0,Q,400.0,False,True,0.0,63.0,63.0,
838.7000000476837,bRMS,79,208423,,,images/rms/f42887_e_140.jpg,main,1.0,Q,400.0,False,True,0.0,63.0,63.0,
513.4000000953674,bRMS,80,209702,,,images/rms/f42887_e_025.jpg,main,0.0,P,400.0,False,True,0.0,63.0,63.0,
561.9000000953674,bRMS,81,211039,,,images/rms/f42887_e_127_1.jpg,reversed,0.0,P,400.0,False,True,0.0,63.0,63.0,
712.8000000715256,bRMS,82,212527,,,images/rms/f42887_e_028_1.jpg,reversed,1.0,Q,400.0,False,True,0.0,63.0,63.0,
436.3999999761581,bRMS,83,213735,,,images/rms/f42887_e_296_1.jpg,reversed,0.0,P,400.0,False,True,0.0,63.0,63.0,
594.1000000238419,bRMS,84,215110,,,images/rms/f42887_e_103.jpg,main,1.0,Q,400.0,False,True,0.0,63.0,63.0,
4172.0,instructions,85,219692,,,,,,,,,,,,,
,image-cpt,86,223330,,,,,,,,,,,,,False
,image-cpt,87,226964,,,,,,,,,,,,,False
,image-cpt,88,229112,,,,,,,,,,,,,False
,image-cpt,89,230146,,,,,,,,,,,,,False
722.0,image-cpt,90,233281,,,,,,32,,,,,,,False
579.0,image-cpt,91,235429,,,,,,32,,,,,,,True
672.0,image-cpt,92,238563,,,,,,32,,,,,,,True
,image-cpt,93,241711,,,,,,,,,,,,,False
934.0,image-cpt,94,245347,,,,,,32,,,,,,,False
690.0,image-cpt,95,248978,,,,,,32,,,,,,,True
,image-cpt,96,251628,,,,,,,,,,,,,True
,image-cpt,97,254764,,,,,,,,,,,,,False
,image-cpt,98,257412,,,,,,,,,,,,,False
,image-cpt,99,260046,,,,,,,,,,,,,False
,image-cpt,100,262195,,,,,,,,,,,,,False
1889.0,instructions,101,264084,,,,,,,,,,,,,
,image-cpt,102,267227,,,,,,,,,,,,,False
394.0,image-cpt,103,269876,,,,,,32,,,,,,,True
,image-cpt,104,272027,,,,,,,,,,,,,False
,image-cpt,105,275676,,,,,,,,,,,,,False
,image-cpt,106,277826,,,,,,,,,,,,,False
,image-cpt,107,281476,,,,,,,,,,,,,False
,image-cpt,108,284126,,,,,,,,,,,,,False
439.0,image-cpt,109,286776,,,,,,32,,,,,,,True
509.0,image-cpt,110,289426,,,,,,32,,,,,,,True
,image-cpt,111,293076,,,,,,,,,,,,,False
,image-cpt,112,295225,,,,,,,,,,,,,False
443.0,image-cpt,113,298359,,,,,,32,,,,,,,True
430.0,image-cpt,114,301008,,,,,,32,,,,,,,True
,image-cpt,115,304658,,,,,,,,,,,,,False
,image-cpt,116,308308,,,,,,,,,,,,,False
,image-cpt,117,310941,,,,,,,,,,,,,False
,image-cpt,118,313091,,,,,,,,,,,,,False
,image-cpt,119,315241,,,,,,,,,,,,,False
,image-cpt,120,318374,,,,,,,,,,,,,False
,image-cpt,121,321524,,,,,,,,,,,,,False
,image-cpt,122,325174,,,,,,,,,,,,,False
,image-cpt,123,328326,,,,,,,,,,,,,False
463.0,image-cpt,124,331474,,,,,,32,,,,,,,True
387.0,image-cpt,125,334623,,,,,,32,,,,,,,True
389.0,image-cpt,126,337273,,,,,,32,,,,,,,True
,image-cpt,127,339407,,,,,,,,,,,,,False
,image-cpt,128,342557,,,,,,,,,,,,,False
,image-cpt,129,345189,,,,,,,,,,,,,False
,image-cpt,130,348823,,,,,,,,,,,,,False
,image-cpt,131,352472,,,,,,,,,,,,,False
,image-cpt,132,354607,,,,,,,,,,,,,False
,image-cpt,133,357756,,,,,,,,,,,,,False
,image-cpt,134,360406,,,,,,,,,,,,,False
463.0,image-cpt,135,362556,,,,,,32,,,,,,,True
,image-cpt,136,365705,,,,,,,,,,,,,False
,image-cpt,137,369355,,,,,,,,,,,,,False
,image-cpt,138,371505,,,,,,,,,,,,,False
435.0,image-cpt,139,374155,,,,,,32,,,,,,,True
,image-cpt,140,376305,,,,,,,,,,,,,False
387.0,image-cpt,141,379955,,,,,,32,,,,,,,True
354.0,image-cpt,142,382105,,,,,,32,,,,,,,True
524.0,image-cpt,143,385239,,,,,,32,,,,,,,True
,image-cpt,144,388888,,,,,,,,,,,,,False
,image-cpt,145,392021,,,,,,,,,,,,,False
,image-cpt,146,395655,,,,,,,,,,,,,False
,image-cpt,147,398804,,,,,,,,,,,,,False
,image-cpt,148,400954,,,,,,,,,,,,,False
,image-cpt,149,404104,,,,,,,,,,,,,False
,image-cpt,150,406254,,,,,,,,,,,,,False
,image-cpt,151,409387,,,,,,,,,,,,,False
,image-cpt,152,411537,,,,,,,,,,,,,False
,image-cpt,153,414670,,,,,,,,,,,,,False
,image-cpt,154,418320,,,,,,,,,,,,,False
452.0,image-cpt,155,421470,,,,,,32,,,,,,,True
455.0,image-cpt,156,425120,,,,,,32,,,,,,,True
357.0,image-cpt,157,427270,,,,,,32,,,,,,,True
,image-cpt,158,430920,,,,,,,,,,,,,False
,image-cpt,159,433070,,,,,,,,,,,,,False
,image-cpt,160,436703,,,,,,,,,,,,,False
,image-cpt,161,439353,,,,,,,,,,,,,False
476.0,image-cpt,162,442503,,,,,,32,,,,,,,True
,image-cpt,163,444652,,,,,,,,,,,,,False
,image-cpt,164,448302,,,,,,,,,,,,,False
471.0,image-cpt,165,451452,,,,,,32,,,,,,,True
,image-cpt,166,454101,,,,,,,,,,,,,False
,image-cpt,167,456735,,,,,,,,,,,,,False
,image-cpt,168,458885,,,,,,,,,,,,,False
,image-cpt,169,461035,,,,,,,,,,,,,False
426.0,image-cpt,170,463685,,,,,,32,,,,,,,True
480.0,image-cpt,171,465834,,,,,,32,,,,,,,True
,image-cpt,172,469484,,,,,,,,,,,,,False
,image-cpt,173,472634,,,,,,,,,,,,,False
,image-cpt,174,475284,,,,,,,,,,,,,False
,image-cpt,175,478934,,,,,,,,,,,,,False
478.0,image-cpt,176,482084,,,,,,32,,,,,,,True
,image-cpt,177,484234,,,,,,,,,,,,,False
,image-cpt,178,487384,,,,,,,,,,,,,False
,image-cpt,179,490533,,,,,,,,,,,,,False
,image-cpt,180,492683,,,,,,,,,,,,,False
,image-cpt,181,496333,,,,,,,,,,,,,False
,image-cpt,182,498483,,,,,,,,,,,,,False
481.0,image-cpt,183,501633,,,,,,32,,,,,,,True
355.0,image-cpt,184,504283,,,,,,32,,,,,,,True
,image-cpt,185,507433,,,,,,,,,,,,,False
460.0,image-cpt,186,509567,,,,,,32,,,,,,,True
,image-cpt,187,510599,,,,,,,,,,,,,False
,image-cpt,188,512749,,,,,,,,,,,,,False
,image-cpt,189,514899,,,,,,,,,,,,,False
,image-cpt,190,517549,,,,,,,,,,,,,False
,image-cpt,191,521183,,,,,,,,,,,,,False
437.0,image-cpt,192,524832,,,,,,32,,,,,,,True
,image-cpt,193,527482,,,,,,,,,,,,,False
,image-cpt,194,531132,,,,,,,,,,,,,False
,image-cpt,195,533282,,,,,,,,,,,,,False
,image-cpt,196,535931,,,,,,,,,,,,,False
,image-cpt,197,539081,,,,,,,,,,,,,False
443.0,image-cpt,198,541731,,,,,,32,,,,,,,True
,image-cpt,199,544881,,,,,,,,,,,,,False
,image-cpt,200,548014,,,,,,,,,,,,,False
,image-cpt,201,550164,,,,,,,,,,,,,False
,image-cpt,202,552814,,,,,,,,,,,,,False
487.0,image-cpt,203,555964,,,,,,32,,,,,,,True
,image-cpt,204,558614,,,,,,,,,,,,,False
,image-cpt,205,560763,,,,,,,,,,,,,False
,image-cpt,206,562914,,,,,,,,,,,,,False
,image-cpt,207,565563,,,,,,,,,,,,,False
425.0,image-cpt,208,568213,,,,,,32,,,,,,,True
,image-cpt,209,570847,,,,,,,,,,,,,False
,image-cpt,210,572996,,,,,,,,,,,,,False
,image-cpt,211,576146,,,,,,,,,,,,,False
,image-cpt,212,578796,,,,,,,,,,,,,False
,image-cpt,213,582446,,,,,,,,,,,,,False
486.0,image-cpt,214,584596,,,,,,32,,,,,,,True
,image-cpt,215,587246,,,,,,,,,,,,,False
,image-cpt,216,590896,,,,,,,,,,,,,False
,image-cpt,217,594045,,,,,,,,,,,,,False
,image-cpt,218,597195,,,,,,,,,,,,,False
,image-cpt,219,599345,,,,,,,,,,,,,False
,image-cpt,220,602979,,,,,,,,,,,,,False
,image-cpt,221,606629,,,,,,,,,,,,,False
496.0,image-cpt,222,610278,,,,,,32,,,,,,,True
,image-cpt,223,613428,,,,,,,,,,,,,False
448.0,image-cpt,224,616078,,,,,,32,,,,,,,True
,image-cpt,225,618728,,,,,,,,,,,,,False
412.0,image-cpt,226,622378,,,,,,32,,,,,,,True
,image-cpt,227,626028,,,,,,,,,,,,,False
,image-cpt,228,629177,,,,,,,,,,,,,False
,image-cpt,229,631827,,,,,,,,,,,,,False
513.0,image-cpt,230,635477,,,,,,32,,,,,,,True
431.0,image-cpt,231,637627,,,,,,32,,,,,,,True
569.0,image-cpt,232,641277,,,,,,32,,,,,,,True
,image-cpt,233,644926,,,,,,,,,,,,,False
,image-cpt,234,645960,,,,,,,,,,,,,False
509.0,image-cpt,235,649110,,,,,,32,,,,,,,True
,image-cpt,236,652760,,,,,,,,,,,,,False
541.0,image-cpt,237,655410,,,,,,32,,,,,,,False
,image-cpt,238,657543,,,,,,,,,,,,,False
,image-cpt,239,661193,,,,,,,,,,,,,True
,image-cpt,240,663326,,,,,,,,,,,,,False
,image-cpt,241,666476,,,,,,,,,,,,,False
,image-cpt,242,670125,,,,,,,,,,,,,False
,image-cpt,243,672276,,,,,,,,,,,,,False
,image-cpt,244,675925,,,,,,,,,,,,,False
463.0,image-cpt,245,679075,,,,,,32,,,,,,,True
,image-cpt,246,681725,,,,,,,,,,,,,True
375.0,image-cpt,247,684358,,,,,,32,,,,,,,True
,image-cpt,248,687993,,,,,,,,,,,,,False
,image-cpt,249,690642,,,,,,,,,,,,,False
755.0,image-cpt,250,694291,,,,,,32,,,,,,,True
,image-cpt,251,696941,,,,,,,,,,,,,False
,image-cpt,252,700559,,,,,,,,,,,,,False
,image-cpt,253,703192,,,,,,,,,,,,,False
,image-cpt,254,705341,,,,,,,,,,,,,False
,image-cpt,255,708491,,,,,,,,,,,,,False
,image-cpt,256,710641,,,,,,,,,,,,,True
,image-cpt,257,714290,,,,,,,,,,,,,False
,image-cpt,258,716440,,,,,,,,,,,,,False
892.0,image-cpt,259,720090,,,,,,32,,,,,,,True
,image-cpt,260,722240,,,,,,,,,,,,,False
,image-cpt,261,725390,,,,,,,,,,,,,False
,image-cpt,262,728540,,,,,,,,,,,,,False
809.0,image-cpt,263,730690,,,,,,32,,,,,,,True
,image-cpt,264,734340,,,,,,,,,,,,,False
,image-cpt,265,737489,,,,,,,,,,,,,False
723.0,image-cpt,266,739623,,,,,,32,,,,,,,True
1134.0,image-cpt,267,742772,,,,,,32,,,,,,,True
,image-cpt,268,745922,,,,,,,,,,,,,False
,image-cpt,269,748572,,,,,,,,,,,,,False
809.0,image-cpt,270,752222,,,,,,32,,,,,,,True
,image-cpt,271,755372,,,,,,,,,,,,,False
537.0,image-cpt,272,759022,,,,,,32,,,,,,,True
807.0,image-cpt,273,761172,,,,,,32,,,,,,,True
,image-cpt,274,764322,,,,,,,,,,,,,False
,image-cpt,275,766972,,,,,,,,,,,,,False
,image-cpt,276,769605,,,,,,,,,,,,,False
,image-cpt,277,773239,,,,,,,,,,,,,False
,image-cpt,278,776887,,,,,,,,,,,,,False
,image-cpt,279,779038,,,,,,,,,,,,,False
,image-cpt,280,782187,,,,,,,,,,,,,False
,image-cpt,281,785337,,,,,,,,,,,,,False
475.0,image-cpt,282,787987,,,,,,32,,,,,,,True
626.0,image-cpt,283,790137,,,,,,32,,,,,,,True
,image-cpt,284,793787,,,,,,,,,,,,,False
,image-cpt,285,797437,,,,,,,,,,,,,False
392.0,image-cpt,286,801071,,,,,,32,,,,,,,True
,image-cpt,287,803220,,,,,,,,,,,,,False
353.0,image-cpt,288,806370,,,,,,32,,,,,,,False
451.0,image-cpt,289,809019,,,,,,32,,,,,,,True
457.0,image-cpt,290,812669,,,,,,32,,,,,,,True
,image-cpt,291,815819,,,,,,,,,,,,,False
,image-cpt,292,817969,,,,,,,,,,,,,False
,image-cpt,293,820103,,,,,,,,,,,,,False
,image-cpt,294,822737,,,,,,,,,,,,,False
596.0,image-cpt,295,826386,,,,,,32,,,,,,,True
,image-cpt,296,829519,,,,,,,,,,,,,False
598.0,image-cpt,297,832165,,,,,,32,,,,,,,True
,image-cpt,298,835302,,,,,,,,,,,,,False
543.0,image-cpt,299,837452,,,,,,32,,,,,,,True
441.0,image-cpt,300,841102,,,,,,32,,,,,,,True
631.0,image-cpt,301,844735,,,,,,32,,,,,,,True
,image-cpt,302,847884,,,,,,,,,,,,,False
,image-cpt,303,850519,,,,,,,,,,,,,False
542.0,image-cpt,304,854168,,,,,,32,,,,,,,True
,image-cpt,305,856318,,,,,,,,,,,,,False
,image-cpt,306,858952,,,,,,,,,,,,,False
493.0,image-cpt,307,862101,,,,,,32,,,,,,,True
512.0,image-cpt,308,865250,,,,,,32,,,,,,,True
,image-cpt,309,867401,,,,,,,,,,,,,False
,image-cpt,310,870550,,,,,,,,,,,,,False
,image-cpt,311,872700,,,,,,,,,,,,,False
,image-cpt,312,875850,,,,,,,,,,,,,False
,image-cpt,313,878500,,,,,,,,,,,,,False
,image-cpt,314,880650,,,,,,,,,,,,,False
,image-cpt,315,883300,,,,,,,,,,,,,False
,image-cpt,316,885450,,,,,,,,,,,,,False
,image-cpt,317,888100,,,,,,,,,,,,,False
385.0,image-cpt,318,891749,,,,,,32,,,,,,,True
,image-cpt,319,895384,,,,,,,,,,,,,False
,image-cpt,320,898017,,,,,,,,,,,,,True
,image-cpt,321,901149,,,,,,,,,,,,,False
,image-cpt,322,903299,,,,,,,,,,,,,False
,image-cpt,323,905449,,,,,,,,,,,,,False
,image-cpt,324,908583,,,,,,,,,,,,,False
558.0,image-cpt,325,912231,,,,,,32,,,,,,,True
,image-cpt,326,914882,,,,,,,,,,,,,False
515.0,image-cpt,327,917531,,,,,,32,,,,,,,True
521.0,image-cpt,328,919681,,,,,,32,,,,,,,True
,image-cpt,329,922331,,,,,,,,,,,,,False
537.0,image-cpt,330,925981,,,,,,32,,,,,,,True
375.0,image-cpt,331,928615,,,,,,32,,,,,,,True
477.0,image-cpt,332,931764,,,,,,32,,,,,,,True
,image-cpt,333,933914,,,,,,,,,,,,,False
,image-cpt,334,937064,,,,,,,,,,,,,False
,image-cpt,335,940714,,,,,,,,,,,,,False
,image-cpt,336,944364,,,,,,,,,,,,,False
,image-cpt,337,947014,,,,,,,,,,,,,False
,image-cpt,338,950663,,,,,,,,,,,,,False
,image-cpt,339,953813,,,,,,,,,,,,,False
495.0,image-cpt,340,956462,,,,,,32,,,,,,,True
,image-cpt,341,958615,,,,,,,,,,,,,False
,image-cpt,342,960763,,,,,,,,,,,,,False
1034.0,image-cpt,343,963913,,,,,,32,,,,,,,True
,image-cpt,344,967046,,,,,,,,,,,,,False
,image-cpt,345,969195,,,,,,,,,,,,,False
,image-cpt,346,972345,,,,,,,,,,,,,True
,image-cpt,347,975495,,,,,,,,,,,,,False
,image-cpt,348,978645,,,,,,,,,,,,,False
,image-cpt,349,982279,,,,,,,,,,,,,False
,image-cpt,350,984928,,,,,,,,,,,,,False
,image-cpt,351,988062,,,,,,,,,,,,,False
,image-cpt,352,990711,,,,,,,,,,,,,True
,image-cpt,353,993361,,,,,,,,,,,,,False
627.0,image-cpt,354,995494,,,,,,32,,,,,,,True
,image-cpt,355,998144,,,,,,,,,,,,,True
,image-cpt,356,1000278,,,,,,,,,,,,,True
,image-cpt,357,1002427,,,,,,,,,,,,,False
,image-cpt,358,1005577,,,,,,,,,,,,,False
427.0,image-cpt,359,1008710,,,,,,32,,,,,,,True
,image-cpt,360,1012359,,,,,,,,,,,,,False
412.0,image-cpt,361,1014494,,,,,,32,,,,,,,True
,image-cpt,362,1016643,,,,,,,,,,,,,False
626.0,image-cpt,363,1020293,,,,,,32,,,,,,,True
,image-cpt,364,1023943,,,,,,,,,,,,,False
414.0,image-cpt,365,1027592,,,,,,32,,,,,,,True
347.0,image-cpt,366,1031243,,,,,,32,,,,,,,True
,image-cpt,367,1034893,,,,,,,,,,,,,False
,image-cpt,368,1038043,,,,,,,,,,,,,False
506.0,image-cpt,369,1040693,,,,,,32,,,,,,,True
,image-cpt,370,1043844,,,,,,,,,,,,,False
433.0,image-cpt,371,1045992,,,,,,32,,,,,,,True
,image-cpt,372,1049642,,,,,,,,,,,,,False
,image-cpt,373,1051792,,,,,,,,,,,,,False
420.0,image-cpt,374,1054942,,,,,,32,,,,,,,True
422.0,image-cpt,375,1058092,,,,,,32,,,,,,,True
,image-cpt,376,1061742,,,,,,,,,,,,,False
,image-cpt,377,1064376,,,,,,,,,,,,,False
,image-cpt,378,1068025,,,,,,,,,,,,,False
,image-cpt,379,1070675,,,,,,,,,,,,,False
,image-cpt,380,1072825,,,,,,,,,,,,,False
556.0,image-cpt,381,1075474,,,,,,32,,,,,,,True
,image-cpt,382,1078124,,,,,,,,,,,,,False
,image-cpt,383,1080774,,,,,,,,,,,,,False
,image-cpt,384,1082924,,,,,,,,,,,,,False
,image-cpt,385,1086559,,,,,,,,,,,,,False
,image-cpt,386,1089207,,,,,,,,,,,,,False
,image-cpt,387,1092357,,,,,,,,,,,,,False
,image-cpt,388,1095991,,,,,,,,,,,,,False
,image-cpt,389,1098640,,,,,,,,,,,,,False
,image-cpt,390,1101289,,,,,,,,,,,,,False
,image-cpt,391,1103939,,,,,,,,,,,,,False
,image-cpt,392,1107590,,,,,,,,,,,,,False
,image-cpt,393,1111224,,,,,,,,,,,,,False
,image-cpt,394,1113873,,,,,,,,,,,,,False
,image-cpt,395,1116006,,,,,,,,,,,,,False
,image-cpt,396,1118156,,,,,,,,,,,,,False
,image-cpt,397,1121306,,,,,,,,,,,,,False
,image-cpt,398,1123956,,,,,,,,,,,,,False
690.0,image-cpt,399,1127106,,,,,,32,,,,,,,True
,image-cpt,400,1130755,,,,,,,,,,,,,False
513.0,image-cpt,401,1133905,,,,,,32,,,,,,,True
596.0,image-cpt,402,1137554,,,,,,32,,,,,,,True
578.0,image-cpt,403,1140205,,,,,,32,,,,,,,True
,image-cpt,404,1142355,,,,,,,,,,,,,False
,image-cpt,405,1144505,,,,,,,,,,,,,False
,image-cpt,406,1147155,,,,,,,,,,,,,False
,image-cpt,407,1150305,,,,,,,,,,,,,False
,image-cpt,408,1152955,,,,,,,,,,,,,False
666.0,image-cpt,409,1155104,,,,,,32,,,,,,,True
,image-cpt,410,1158254,,,,,,,,,,,,,False
775.0,image-cpt,411,1161904,,,,,,32,,,,,,,True
,image-cpt,412,1164554,,,,,,,,,,,,,False
,image-cpt,413,1167204,,,,,,,,,,,,,False
,image-cpt,414,1169854,,,,,,,,,,,,,False
440.0,image-cpt,415,1172004,,,,,,32,,,,,,,True
,image-cpt,416,1175154,,,,,,,,,,,,,False
,image-cpt,417,1177804,,,,,,,,,,,,,False
569.0,image-cpt,418,1180453,,,,,,32,,,,,,,True
,image-cpt,419,1184086,,,,,,,,,,,,,False
,image-cpt,420,1186736,,,,,,,,,,,,,False
532.0,image-cpt,421,1188871,,,,,,32,,,,,,,True
13174.0,instructions,422,1202045,,,,,,,,,,,,,
1131.2999999523165,bRMS,423,1203543,,,images/rms/f42887_e_289.jpg,control_main,0.0,P,400.0,False,True,0.0,63.0,63.0,
580.2000000476837,bRMS,424,1204895,,,images/rms/f42887_e_278_1.jpg,control_reversed,0.0,P,400.0,False,True,0.0,63.0,63.0,
539.2999999523163,bRMS,425,1206215,,,images/rms/f42887_e_245.jpg,control_main,1.0,Q,400.0,False,True,0.0,63.0,63.0,
812.0999999046326,bRMS,426,1207799,,,images/rms/f42887_e_025.jpg,control_main,1.0,Q,400.0,False,True,0.0,63.0,63.0,
1115.399999976158,bRMS,427,1209679,,,images/rms/f42887_e_161.jpg,control_main,1.0,Q,400.0,False,True,0.0,63.0,63.0,
1250.1999999284744,bRMS,428,1211701,,,images/rms/f42887_e_005.jpg,control_main,0.0,P,400.0,False,True,0.0,63.0,63.0,
1265.6999999284744,bRMS,429,1213735,,,images/rms/f42887_e_015_1.jpg,control_reversed,0.0,P,400.0,False,True,0.0,63.0,63.0,
827.7999999523163,bRMS,430,1215327,,,images/rms/f42887_e_140.jpg,control_main,1.0,Q,400.0,False,True,0.0,63.0,63.0,
1849.899999976158,bRMS,431,1217951,,,images/rms/f42887_e_296_1.jpg,control_reversed,1.0,Q,400.0,False,True,0.0,63.0,63.0,
962.399999976158,bRMS,432,1219700,,,images/rms/f42887_e_202.jpg,control_main,1.0,Q,400.0,False,True,0.0,63.0,63.0,
731.8000000715256,bRMS,433,1221215,,,images/rms/f42887_e_241.jpg,control_main,0.0,P,400.0,False,True,0.0,63.0,63.0,
814.4000000953674,bRMS,434,1222799,,,images/rms/f42887_e_103_1.jpg,control_reversed,1.0,Q,400.0,False,True,0.0,63.0,63.0,
497.7000000476837,bRMS,435,1224067,,,images/rms/f42887_e_241_1.jpg,control_reversed,0.0,P,400.0,False,True,0.0,63.0,63.0,
611.5999999046326,bRMS,436,1225447,,,images/rms/f42887_e_103.jpg,control_main,1.0,Q,400.0,False,True,0.0,63.0,63.0,
461.1999999284744,bRMS,437,1226679,,,images/rms/f42887_e_072_1.jpg,control_reversed,0.0,P,400.0,False,True,0.0,63.0,63.0,
526.1000000238419,bRMS,438,1227974,,,images/rms/f42887_e_028_1.jpg,control_reversed,0.0,P,400.0,False,True,0.0,63.0,63.0,
515.6000000238419,bRMS,439,1229263,,,images/rms/f42887_e_001_1.jpg,control_reversed,1.0,Q,400.0,False,True,0.0,63.0,63.0,
475.09999990463257,bRMS,440,1230518,,,images/rms/f42887_e_298_1.jpg,control_reversed,1.0,Q,400.0,False,True,0.0,63.0,63.0,
507.5,bRMS,441,1231815,,,images/rms/f42887_e_295.jpg,control_main,0.0,P,400.0,False,True,0.0,63.0,63.0,
620.2999999523163,bRMS,442,1233215,,,images/rms/f42887_e_053.jpg,control_main,1.0,Q,400.0,False,True,0.0,63.0,63.0,
547.1999999284744,bRMS,443,1234534,,,images/rms/f42887_e_180.jpg,control_main,1.0,Q,400.0,False,True,0.0,63.0,63.0,
347.10000002384186,bRMS,444,1235663,,,images/rms/f42887_e_098.jpg,control_main,1.0,Q,400.0,False,True,0.0,63.0,63.0,
415.9000000953674,bRMS,445,1236866,,,images/rms/f42887_e_295_1.jpg,control_reversed,0.0,P,400.0,False,True,0.0,63.0,63.0,
403.6999999284744,bRMS,446,1238047,,,images/rms/f42887_e_156_1.jpg,control_reversed,1.0,Q,400.0,False,True,0.0,63.0,63.0,
371.59999990463257,bRMS,447,1239185,,,images/rms/f42887_e_121_1.jpg,control_reversed,0.0,P,400.0,False,True,0.0,63.0,63.0,
532.1999999284744,bRMS,448,1240483,,,images/rms/f42887_e_180_1.jpg,control_reversed,0.0,P,400.0,False,True,0.0,63.0,63.0,
515.0,bRMS,449,1241759,,,images/rms/f42887_e_028.jpg,control_main,0.0,P,400.0,False,True,0.0,63.0,63.0,
585.6999999284744,bRMS,450,1243127,,,images/rms/f42887_e_252.jpg,control_main,1.0,Q,400.0,False,True,0.0,63.0,63.0,
538.6000000238419,bRMS,451,1244434,,,images/rms/f42887_e_053_1.jpg,control_reversed,0.0,P,400.0,False,True,0.0,63.0,63.0,
404.2000000476837,bRMS,452,1245614,,,images/rms/f42887_e_121.jpg,control_main,1.0,Q,400.0,False,True,0.0,63.0,63.0,
626.6999999284744,bRMS,453,1247015,,,images/rms/f42887_e_140_1.jpg,control_reversed,1.0,Q,400.0,False,True,0.0,63.0,63.0,
471.2999999523163,bRMS,454,1248263,,,images/rms/f42887_e_297.jpg,control_main,1.0,Q,400.0,False,True,0.0,63.0,63.0,
585.6000000238419,bRMS,455,1249630,,,images/rms/f42887_e_064_1.jpg,control_reversed,0.0,P,400.0,False,True,0.0,63.0,63.0,
596.4000000953674,bRMS,456,1250998,,,images/rms/f42887_e_058.jpg,control_main,1.0,Q,400.0,False,True,0.0,63.0,63.0,
1049.2999999523165,bRMS,457,1252832,,,images/rms/f42887_e_161_1.jpg,control_reversed,0.0,P,400.0,False,True,0.0,63.0,63.0,
772.3999999761581,bRMS,458,1254375,,,images/rms/f42887_e_025_1.jpg,control_reversed,0.0,P,400.0,False,True,0.0,63.0,63.0,
1170.7999999523165,bRMS,459,1256327,,,images/rms/f42887_e_202_1.jpg,control_reversed,0.0,P,400.0,False,True,0.0,63.0,63.0,
1536.6999999284744,bRMS,460,1258646,,,images/rms/f42887_e_080_1.jpg,control_reversed,0.0,P,400.0,False,True,0.0,63.0,63.0,
778.6000000238419,bRMS,461,1260199,,,images/rms/f42887_e_298.jpg,control_main,0.0,P,400.0,False,True,0.0,63.0,63.0,
810.0,bRMS,462,1261799,,,images/rms/f42887_e_080.jpg,control_main,1.0,Q,400.0,False,True,0.0,63.0,63.0,
650.0999999046326,bRMS,463,1263223,,,images/rms/f42887_e_072.jpg,control_main,1.0,Q,400.0,False,True,0.0,63.0,63.0,
468.09999990463257,bRMS,464,1264479,,,images/rms/f42887_e_259_1.jpg,control_reversed,1.0,Q,400.0,False,True,0.0,63.0,63.0,
992.0,bRMS,465,1266247,,,images/rms/f42887_e_293_1.jpg,control_reversed,0.0,P,400.0,False,True,0.0,63.0,63.0,
860.6999999284744,bRMS,466,1267879,,,images/rms/f42887_e_259.jpg,control_main,0.0,P,400.0,False,True,0.0,63.0,63.0,
730.9000000953674,bRMS,467,1269383,,,images/rms/f42887_e_156.jpg,control_main,1.0,Q,400.0,False,True,0.0,63.0,63.0,
522.1999999284744,bRMS,468,1270679,,,images/rms/f42887_e_296.jpg,control_main,1.0,Q,400.0,False,True,0.0,63.0,63.0,
602.0,bRMS,469,1272047,,,images/rms/f42887_e_015.jpg,control_main,0.0,P,400.0,False,True,0.0,63.0,63.0,
770.7999999523163,bRMS,470,1273590,,,images/rms/f42887_e_127.jpg,control_main,0.0,P,400.0,False,True,0.0,63.0,63.0,
402.5,bRMS,471,1274782,,,images/rms/f42887_e_258.jpg,control_main,1.0,Q,400.0,False,True,0.0,63.0,63.0,
707.5999999046326,bRMS,472,1276263,,,images/rms/f42887_e_098_1.jpg,control_reversed,1.0,Q,400.0,False,True,0.0,63.0,63.0,
378.3000000715256,bRMS,473,1277415,,,images/rms/f42887_e_127_1.jpg,control_reversed,1.0,Q,400.0,False,True,0.0,63.0,63.0,
653.0999999046326,bRMS,474,1278847,,,images/rms/f42887_e_058_1.jpg,control_reversed,0.0,Q,400.0,False,False,0.0,63.0,63.0,
644.8000000715256,bRMS,475,1280263,,,images/rms/f42887_e_289_1.jpg,control_reversed,0.0,P,400.0,False,True,0.0,63.0,63.0,
587.5,bRMS,476,1281631,,,images/rms/f42887_e_252_1.jpg,control_reversed,0.0,P,400.0,False,True,0.0,63.0,63.0,
931.2999999523164,bRMS,477,1283343,,,images/rms/f42887_e_297_1.jpg,control_reversed,1.0,Q,400.0,False,True,0.0,63.0,63.0,
577.8999999761581,bRMS,478,1284695,,,images/rms/f42887_e_293.jpg,control_main,0.0,P,400.0,False,True,0.0,63.0,63.0,
587.0,bRMS,479,1286063,,,images/rms/f42887_e_258_1.jpg,control_reversed,1.0,Q,400.0,False,True,0.0,63.0,63.0,
499.10000002384186,bRMS,480,1287327,,,images/rms/f42887_e_064.jpg,control_main,1.0,Q,400.0,False,True,0.0,63.0,63.0,
464.3999999761581,bRMS,481,1288599,,,images/rms/f42887_e_278.jpg,control_main,0.0,P,400.0,False,True,0.0,63.0,63.0,
750.5,bRMS,482,1290127,,,images/rms/f42887_e_005_1.jpg,control_reversed,0.0,P,400.0,False,True,0.0,63.0,63.0,
1348.399999976158,bRMS,483,1292247,,,images/rms/f42887_e_001.jpg,control_main,0.0,P,400.0,False,True,0.0,63.0,63.0,
427.10000002384186,bRMS,484,1293447,,,images/rms/f42887_e_245_1.jpg,control_reversed,0.0,P,400.0,False,True,0.0,63.0,63.0,
3741.0,instructions,485,1297597,,,,,,,,,,,,,
12079.0,survey-likert,486,1309677,"{""Q0"":3,""Q1"":1,""Q2"":2}",ASRS_2_6,,,,,,,,,,,
11743.0,survey-likert,487,1321421,"{""Q0"":3,""Q1"":2,""Q2"":1}",ASRS_2_3,,,,,,,,,,,
15447.0,survey-likert,488,1336869,"{""Q0"":2,""Q1"":3,""Q2"":2}",ASRS_2_9,,,,,,,,,,,
17511.0,survey-likert,489,1354381,"{""Q0"":2,""Q1"":0,""Q2"":1}",ASRS_1_0,,,,,,,,,,,
13647.0,survey-likert,490,1368029,"{""Q0"":4,""Q1"":3,""Q2"":1}",ASRS_2_0,,,,,,,,,,,
13879.0,survey-likert,491,1381909,"{""Q0"":4,""Q1"":3,""Q2"":1}",ASRS_1_3,,,,,,,,,,,
5832.0,survey-likert,492,1387741,"{""Q0"":3}",LAST_1,,,,,,,,,,,
2895.0,survey-multi-choice,493,1390637,"{""Q0"":""כן""}",,,,,,,,,,,,
24847.0,survey-text,494,1415485,"{""Q0"":""להסתכל על הצלב ולנסות להבחין אם משהו כהה מתקרב""}",,,,,,,,,,,,
5192.0,survey-likert,495,1420677,"{""Q0"":4}",LAST_4,,,,,,,,,,,
2271.0,survey-multi-choice,496,1422949,"{""Q0"":""לא""}",,,,,,,,,,,,
1639.0,survey-text,497,1424589,"{""Q0"":""""}",,,,,,,,,,,,
14864.0,survey-likert,498,1439453,"{""Q0"":3}",DRIVE_1,,,,,,,,,,,
7183.0,survey-text,499,1446637,"{""Q0"":""2""}",,,,,,,,,,,,
4527.0,survey-text,500,1451165,"{""Q0"":""0""}",,,,,,,,,,,,
1120.0,instructions,501,1452285,,,,,,,,,,,,,
