rt,trial_type,trial_index,time_elapsed,responses,name,key_press,is_stimulus,stimulus,stimulus_block,stimulus_side,time_post_trial,is_fullscreen,correct,trial_began,block,sub_block
563649.0,instructions,0,563649,,,,,,,,,,,,,
13790.0,survey-multi-choice,1,577441,"{""Q0"":""אישה"",""Q1"":""ימין"",""Q2"":""עברית""}",,,,,,,,,,,,
5967.0,survey-text,2,583409,"{""Q0"":""24"",""Q1"":""32""}",,,,,,,,,,,,
2631.0,survey-multi-choice,3,586041,"{""Q0"":""לא""}",,,,,,,,,,,,
8880.0,survey-likert,4,594921,"{""Q0"":1}",attention_2,,,,,,,,,,,
21480.0,instructions,5,616401,,,,,,,,,,,,,
1520.0,image-cpt,6,620022,,,32,True,,,,,,,,,
,image-cpt,7,622673,,,,False,,,,,,,,,
,image-cpt,8,625322,,,,False,,,,,,,,,
,image-cpt,9,628457,,,,False,,,,,,,,,
,image-cpt,10,630613,,,,False,,,,,,,,,
,image-cpt,11,633740,,,,False,,,,,,,,,
644.0,image-cpt,12,636388,,,32,True,,,,,,,,,
492.0,image-cpt,13,639038,,,32,True,,,,,,,,,
,image-cpt,14,642673,,,,False,,,,,,,,,
,image-cpt,15,645806,,,,False,,,,,,,,,
,image-cpt,16,647955,,,,False,,,,,,,,,
557.0,image-cpt,17,651104,,,32,True,,,,,,,,,
,image-cpt,18,654736,,,,False,,,,,,,,,
,image-cpt,19,658372,,,,False,,,,,,,,,
,image-cpt,20,659428,,,,False,,,,,,,,,
7420.0,instructions,21,666849,,,,,,,,,,,,,
,image-cpt,22,669982,,,,False,,,,,,,,,
,image-cpt,23,672119,,,,False,,,,,,,,,
,image-cpt,24,675269,,,,False,,,,,,,,,
,image-cpt,25,678918,,,,False,,,,,,,,,
,image-cpt,26,682060,,,,False,,,,,,,,,
,image-cpt,27,685185,,,,False,,,,,,,,,
,image-cpt,28,688335,,,,False,,,,,,,,,
418.0,image-cpt,29,690986,,,32,True,,,,,,,,,
455.0,image-cpt,30,693635,,,32,True,,,,,,,,,
,image-cpt,31,695785,,,,False,,,,,,,,,
456.0,image-cpt,32,697934,,,32,True,,,,,,,,,
,image-cpt,33,701568,,,,False,,,,,,,,,
,image-cpt,34,703700,,,,False,,,,,,,,,
,image-cpt,35,706334,,,,False,,,,,,,,,
,image-cpt,36,709484,,,,False,,,,,,,,,
,image-cpt,37,712634,,,,False,,,,,,,,,
,image-cpt,38,715783,,,,False,,,,,,,,,
,image-cpt,39,719433,,,,False,,,,,,,,,
,image-cpt,40,722083,,,,False,,,,,,,,,
,image-cpt,41,725733,,,,False,,,,,,,,,
396.0,image-cpt,42,727866,,,32,True,,,,,,,,,
,image-cpt,43,730016,,,,False,,,,,,,,,
320.0,image-cpt,44,732650,,,32,True,,,,,,,,,
,image-cpt,45,735799,,,,False,,,,,,,,,
,image-cpt,46,739449,,,,False,,,,,,,,,
,image-cpt,47,743082,,,,False,,,,,,,,,
,image-cpt,48,745215,,,,False,,,,,,,,,
401.0,image-cpt,49,748350,,,32,True,,,,,,,,,
,image-cpt,50,750999,,,,False,,,,,,,,,
,image-cpt,51,753648,,,,False,,,,,,,,,
,image-cpt,52,755782,,,,False,,,,,,,,,
,image-cpt,53,758431,,,,False,,,,,,,,,
,image-cpt,54,760566,,,,False,,,,,,,,,
,image-cpt,55,762715,,,,False,,,,,,,,,
,image-cpt,56,764864,,,,False,,,,,,,,,
,image-cpt,57,766998,,,,False,,,,,,,,,
,image-cpt,58,770648,,,,False,,,,,,,,,
,image-cpt,59,774298,,,,False,,,,,,,,,
,image-cpt,60,776931,,,,False,,,,,,,,,
,image-cpt,61,779081,,,,False,,,,,,,,,
456.0,image-cpt,62,782716,,,32,True,,,,,,,,,
453.0,image-cpt,63,786364,,,32,True,,,,,,,,,
,image-cpt,64,789013,,,,False,,,,,,,,,
,image-cpt,65,791663,,,,False,,,,,,,,,
,image-cpt,66,794797,,,,False,,,,,,,,,
436.0,image-cpt,67,796930,,,32,True,,,,,,,,,
,image-cpt,68,800580,,,,False,,,,,,,,,
349.0,image-cpt,69,802730,,,32,True,,,,,,,,,
342.0,image-cpt,70,805879,,,32,True,,,,,,,,,
,image-cpt,71,808013,,,,False,,,,,,,,,
,image-cpt,72,810163,,,,False,,,,,,,,,
,image-cpt,73,813296,,,,False,,,,,,,,,
,image-cpt,74,815946,,,,False,,,,,,,,,
,image-cpt,75,819596,,,,False,,,,,,,,,
357.0,image-cpt,76,823230,,,32,True,,,,,,,,,
,image-cpt,77,826379,,,,False,,,,,,,,,
,image-cpt,78,828529,,,,False,,,,,,,,,
,image-cpt,79,830662,,,,False,,,,,,,,,
,image-cpt,80,834311,,,,False,,,,,,,,,
,image-cpt,81,837460,,,,False,,,,,,,,,
444.0,image-cpt,82,839613,,,32,True,,,,,,,,,
,image-cpt,83,842261,,,,False,,,,,,,,,
,image-cpt,84,845897,,,,False,,,,,,,,,
,image-cpt,85,849044,,,,False,,,,,,,,,
,image-cpt,86,851194,,,,False,,,,,,,,,
470.0,image-cpt,87,854844,,,32,True,,,,,,,,,
517.0,image-cpt,88,858477,,,32,True,,,,,,,,,
,image-cpt,89,860627,,,,False,,,,,,,,,
,image-cpt,90,863277,,,,False,,,,,,,,,
,image-cpt,91,864310,,,,False,,,,,,,,,
,image-cpt,92,867444,,,,False,,,,,,,,,
,image-cpt,93,869593,,,,False,,,,,,,,,
,image-cpt,94,872227,,,,False,,,,,,,,,
,image-cpt,95,874876,,,,False,,,,,,,,,
500.0,image-cpt,96,878026,,,32,True,,,,,,,,,
374.0,image-cpt,97,880176,,,32,True,,,,,,,,,
,image-cpt,98,883826,,,,False,,,,,,,,,
,image-cpt,99,887476,,,,False,,,,,,,,,
,image-cpt,100,890110,,,,False,,,,,,,,,
,image-cpt,101,892759,,,,False,,,,,,,,,
,image-cpt,102,895409,,,,False,,,,,,,,,
528.0,image-cpt,103,897542,,,32,True,,,,,,,,,
,image-cpt,104,900192,,,,False,,,,,,,,,
,image-cpt,105,902325,,,,False,,,,,,,,,
443.0,image-cpt,106,904975,,,32,True,,,,,,,,,
,image-cpt,107,907608,,,,False,,,,,,,,,
,image-cpt,108,910242,,,,False,,,,,,,,,
,image-cpt,109,912392,,,,False,,,,,,,,,
,image-cpt,110,915526,,,,False,,,,,,,,,
,image-cpt,111,918675,,,,False,,,,,,,,,
542.0,image-cpt,112,920824,,,32,True,,,,,,,,,
,image-cpt,113,922958,,,,False,,,,,,,,,
,image-cpt,114,925108,,,,False,,,,,,,,,
,image-cpt,115,927726,,,,False,,,,,,,,,
,image-cpt,116,930374,,,,False,,,,,,,,,
,image-cpt,117,933008,,,,False,,,,,,,,,
,image-cpt,118,935142,,,,False,,,,,,,,,
459.0,image-cpt,119,937290,,,32,True,,,,,,,,,
,image-cpt,120,940440,,,,False,,,,,,,,,
,image-cpt,121,943090,,,,False,,,,,,,,,
415.0,image-cpt,122,946726,,,32,True,,,,,,,,,
,image-cpt,123,950373,,,,False,,,,,,,,,
,image-cpt,124,954023,,,,False,,,,,,,,,
,image-cpt,125,956161,,,,False,,,,,,,,,
447.0,image-cpt,126,959306,,,32,True,,,,,,,,,
,image-cpt,127,962939,,,,False,,,,,,,,,
,image-cpt,128,966089,,,,False,,,,,,,,,
,image-cpt,129,969239,,,,False,,,,,,,,,
410.0,image-cpt,130,971889,,,32,True,,,,,,,,,
,image-cpt,131,975039,,,,False,,,,,,,,,
386.0,image-cpt,132,978189,,,32,True,,,,,,,,,
,image-cpt,133,980822,,,,False,,,,,,,,,
,image-cpt,134,982972,,,,False,,,,,,,,,
,image-cpt,135,986122,,,,False,,,,,,,,,
407.0,image-cpt,136,988255,,,32,True,,,,,,,,,
,image-cpt,137,991404,,,,False,,,,,,,,,
564.0,image-cpt,138,995039,,,32,True,,,,,,,,,
,image-cpt,139,998188,,,,False,,,,,,,,,
564.0,image-cpt,140,1001338,,,32,True,,,,,,,,,
,image-cpt,141,1003488,,,,False,,,,,,,,,
,image-cpt,142,1006622,,,,False,,,,,,,,,
435.0,image-cpt,143,1008763,,,32,True,,,,,,,,,
,image-cpt,144,1011888,,,,False,,,,,,,,,
321.0,image-cpt,145,1014538,,,32,True,,,,,,,,,
,image-cpt,146,1017188,,,,False,,,,,,,,,
,image-cpt,147,1019837,,,,False,,,,,,,,,
,image-cpt,148,1022487,,,,False,,,,,,,,,
330.0,image-cpt,149,1026137,,,32,True,,,,,,,,,
519.0,image-cpt,150,1028770,,,32,True,,,,,,,,,
,image-cpt,151,1031420,,,,False,,,,,,,,,
,image-cpt,152,1034553,,,,False,,,,,,,,,
,image-cpt,153,1037704,,,,False,,,,,,,,,
,image-cpt,154,1041353,,,,False,,,,,,,,,
,image-cpt,155,1043488,,,,False,,,,,,,,,
,image-cpt,156,1045635,,,,False,,,,,,,,,
,image-cpt,157,1047785,,,,False,,,,,,,,,
423.0,image-cpt,158,1051435,,,32,True,,,,,,,,,
310.0,image-cpt,159,1054069,,,32,True,,,,,,,,,
316.0,image-cpt,160,1056218,,,32,True,,,,,,,,,
,image-cpt,161,1059869,,,,False,,,,,,,,,
595.0,image-cpt,162,1063518,,,32,True,,,,,,,,,
,image-cpt,163,1065668,,,,False,,,,,,,,,
,image-cpt,164,1069302,,,,False,,,,,,,,,
,image-cpt,165,1071435,,,,False,,,,,,,,,
,image-cpt,166,1074068,,,,False,,,,,,,,,
,image-cpt,167,1077701,,,,False,,,,,,,,,
,image-cpt,168,1080862,,,,False,,,,,,,,,
498.0,image-cpt,169,1084001,,,32,True,,,,,,,,,
,image-cpt,170,1086651,,,,False,,,,,,,,,
,image-cpt,171,1089300,,,,False,,,,,,,,,
364.0,image-cpt,172,1092434,,,32,True,,,,,,,,,
,image-cpt,173,1095084,,,,False,,,,,,,,,
,image-cpt,174,1098718,,,,False,,,,,,,,,
,image-cpt,175,1101367,,,,False,,,,,,,,,
,image-cpt,176,1102401,,,,False,,,,,,,,,
,image-cpt,177,1105034,,,,False,,,,,,,,,
,image-cpt,178,1108683,,,,False,,,,,,,,,
,image-cpt,179,1111825,,,,False,,,,,,,,,
,image-cpt,180,1114466,,,,False,,,,,,,,,
414.0,image-cpt,181,1117117,,,32,True,,,,,,,,,
404.0,image-cpt,182,1119266,,,32,True,,,,,,,,,
,image-cpt,183,1121916,,,,False,,,,,,,,,
404.0,image-cpt,184,1124565,,,32,True,,,,,,,,,
,image-cpt,185,1127221,,,,False,,,,,,,,,
,image-cpt,186,1129350,,,,False,,,,,,,,,
,image-cpt,187,1132482,,,,False,,,,,,,,,
399.0,image-cpt,188,1136129,,,32,True,,,,,,,,,
,image-cpt,189,1138766,,,,False,,,,,,,,,
,image-cpt,190,1141420,,,,False,,,,,,,,,
,image-cpt,191,1144050,,,,False,,,,,,,,,
431.0,image-cpt,192,1147183,,,32,True,,,,,,,,,
,image-cpt,193,1149832,,,,False,,,,,,,,,
,image-cpt,194,1153465,,,,False,,,,,,,,,
344.0,image-cpt,195,1157115,,,32,True,,,,,,,,,
,image-cpt,196,1159265,,,,False,,,,,,,,,
,image-cpt,197,1161399,,,,False,,,,,,,,,
,image-cpt,198,1164547,,,,False,,,,,,,,,
,image-cpt,199,1166697,,,,False,,,,,,,,,
407.0,image-cpt,200,1170347,,,32,True,,,,,,,,,
405.0,image-cpt,201,1173980,,,32,True,,,,,,,,,
356.0,image-cpt,202,1177613,,,32,True,,,,,,,,,
387.0,image-cpt,203,1179763,,,32,True,,,,,,,,,
,image-cpt,204,1182913,,,,False,,,,,,,,,
463.0,image-cpt,205,1186049,,,32,True,,,,,,,,,
384.0,image-cpt,206,1188696,,,32,True,,,,,,,,,
359.0,image-cpt,207,1192346,,,32,True,,,,,,,,,
422.0,image-cpt,208,1194480,,,32,True,,,,,,,,,
,image-cpt,209,1197613,,,,False,,,,,,,,,
,image-cpt,210,1200262,,,,False,,,,,,,,,
,image-cpt,211,1203396,,,,False,,,,,,,,,
,image-cpt,212,1207030,,,,False,,,,,,,,,
,image-cpt,213,1209178,,,,False,,,,,,,,,
,image-cpt,214,1212829,,,,False,,,,,,,,,
451.0,image-cpt,215,1216478,,,32,True,,,,,,,,,
386.0,image-cpt,216,1219628,,,32,True,,,,,,,,,
324.0,image-cpt,217,1221778,,,32,True,,,,,,,,,
,image-cpt,218,1223928,,,,False,,,,,,,,,
,image-cpt,219,1227061,,,,False,,,,,,,,,
332.0,image-cpt,220,1230711,,,32,True,,,,,,,,,
,image-cpt,221,1233844,,,,False,,,,,,,,,
381.0,image-cpt,222,1237480,,,32,True,,,,,,,,,
361.0,image-cpt,223,1239627,,,32,True,,,,,,,,,
309.0,image-cpt,224,1241777,,,32,True,,,,,,,,,
352.0,image-cpt,225,1244427,,,32,True,,,,,,,,,
,image-cpt,226,1248077,,,,False,,,,,,,,,
339.0,image-cpt,227,1251227,,,32,True,,,,,,,,,
,image-cpt,228,1254877,,,,False,,,,,,,,,
,image-cpt,229,1258010,,,,False,,,,,,,,,
455.0,image-cpt,230,1260146,,,32,True,,,,,,,,,
510.0,image-cpt,231,1263793,,,32,True,,,,,,,,,
,image-cpt,232,1265927,,,,False,,,,,,,,,
362.0,image-cpt,233,1269576,,,32,True,,,,,,,,,
344.0,image-cpt,234,1271710,,,32,True,,,,,,,,,
,image-cpt,235,1274860,,,,False,,,,,,,,,
,image-cpt,236,1277009,,,,False,,,,,,,,,
,image-cpt,237,1279659,,,,False,,,,,,,,,
,image-cpt,238,1283309,,,,False,,,,,,,,,
,image-cpt,239,1285459,,,,False,,,,,,,,,
,image-cpt,240,1288109,,,,False,,,,,,,,,
404.0,image-cpt,241,1291759,,,32,True,,,,,,,,,
,image-cpt,242,1295403,,,,False,,,,,,,,,
406.0,image-cpt,243,1298042,,,32,True,,,,,,,,,
,image-cpt,244,1301191,,,,False,,,,,,,,,
,image-cpt,245,1304841,,,,False,,,,,,,,,
359.0,image-cpt,246,1307991,,,32,True,,,,,,,,,
,image-cpt,247,1310125,,,,False,,,,,,,,,
,image-cpt,248,1313274,,,,False,,,,,,,,,
,image-cpt,249,1316412,,,,False,,,,,,,,,
,image-cpt,250,1320057,,,,False,,,,,,,,,
503.0,image-cpt,251,1323690,,,32,True,,,,,,,,,
374.0,image-cpt,252,1325840,,,32,True,,,,,,,,,
,image-cpt,253,1328490,,,,False,,,,,,,,,
502.0,image-cpt,254,1332140,,,32,True,,,,,,,,,
,image-cpt,255,1335773,,,,False,,,,,,,,,
,image-cpt,256,1338423,,,,False,,,,,,,,,
586.0,image-cpt,257,1341573,,,32,True,,,,,,,,,
,image-cpt,258,1345223,,,,False,,,,,,,,,
,image-cpt,259,1348357,,,,False,,,,,,,,,
,image-cpt,260,1350990,,,,False,,,,,,,,,
418.0,image-cpt,261,1354123,,,32,True,,,,,,,,,
,image-cpt,262,1356766,,,,False,,,,,,,,,
,image-cpt,263,1360390,,,,False,,,,,,,,,
,image-cpt,264,1363538,,,,False,,,,,,,,,
,image-cpt,265,1366688,,,,False,,,,,,,,,
384.0,image-cpt,266,1369338,,,32,True,,,,,,,,,
390.0,image-cpt,267,1372988,,,32,True,,,,,,,,,
,image-cpt,268,1376129,,,,False,,,,,,,,,
,image-cpt,269,1379771,,,,False,,,,,,,,,
,image-cpt,270,1382405,,,,False,,,,,,,,,
,image-cpt,271,1385538,,,,False,,,,,,,,,
398.0,image-cpt,272,1389186,,,32,True,,,,,,,,,
,image-cpt,273,1392337,,,,False,,,,,,,,,
,image-cpt,274,1394470,,,,False,,,,,,,,,
,image-cpt,275,1397121,,,,False,,,,,,,,,
,image-cpt,276,1399270,,,,False,,,,,,,,,
410.0,image-cpt,277,1402920,,,32,True,,,,,,,,,
,image-cpt,278,1406054,,,,False,,,,,,,,,
412.0,image-cpt,279,1409704,,,32,True,,,,,,,,,
393.0,image-cpt,280,1411838,,,32,True,,,,,,,,,
,image-cpt,281,1415487,,,,False,,,,,,,,,
,image-cpt,282,1417622,,,,False,,,,,,,,,
572.0,image-cpt,283,1419770,,,32,True,,,,,,,,,
,image-cpt,284,1422420,,,,False,,,,,,,,,
,image-cpt,285,1425053,,,,False,,,,,,,,,
452.0,image-cpt,286,1427703,,,32,True,,,,,,,,,
441.0,image-cpt,287,1430353,,,32,True,,,,,,,,,
369.0,image-cpt,288,1434003,,,32,True,,,,,,,,,
,image-cpt,289,1437136,,,,False,,,,,,,,,
386.0,image-cpt,290,1440286,,,32,True,,,,,,,,,
,image-cpt,291,1443419,,,,False,,,,,,,,,
551.0,image-cpt,292,1446552,,,32,True,,,,,,,,,
393.0,image-cpt,293,1449687,,,32,True,,,,,,,,,
,image-cpt,294,1452836,,,,False,,,,,,,,,
,image-cpt,295,1454986,,,,False,,,,,,,,,
,image-cpt,296,1457135,,,,False,,,,,,,,,
,image-cpt,297,1459286,,,,False,,,,,,,,,
460.0,image-cpt,298,1461435,,,32,True,,,,,,,,,
407.0,image-cpt,299,1464585,,,32,True,,,,,,,,,
313.0,image-cpt,300,1467717,,,32,True,,,,,,,,,
,image-cpt,301,1469868,,,,False,,,,,,,,,
,image-cpt,302,1473017,,,,False,,,,,,,,,
,image-cpt,303,1475167,,,,False,,,,,,,,,
,image-cpt,304,1478300,,,,False,,,,,,,,,
,image-cpt,305,1481934,,,,False,,,,,,,,,
,image-cpt,306,1485083,,,,False,,,,,,,,,
,image-cpt,307,1487234,,,,False,,,,,,,,,
,image-cpt,308,1489883,,,,False,,,,,,,,,
,image-cpt,309,1493533,,,,False,,,,,,,,,
,image-cpt,310,1497166,,,,False,,,,,,,,,
,image-cpt,311,1499303,,,,False,,,,,,,,,
,image-cpt,312,1502934,,,,False,,,,,,,,,
,image-cpt,313,1506571,,,,False,,,,,,,,,
,image-cpt,314,1509199,,,,False,,,,,,,,,
,image-cpt,315,1511849,,,,False,,,,,,,,,
,image-cpt,316,1514984,,,,False,,,,,,,,,
,image-cpt,317,1518632,,,,False,,,,,,,,,
,image-cpt,318,1521781,,,,False,,,,,,,,,
,image-cpt,319,1525415,,,,False,,,,,,,,,
,image-cpt,320,1528065,,,,False,,,,,,,,,
400.0,image-cpt,321,1531715,,,32,True,,,,,,,,,
,image-cpt,322,1535365,,,,False,,,,,,,,,
,image-cpt,323,1537515,,,,False,,,,,,,,,
,image-cpt,324,1539648,,,,False,,,,,,,,,
513.0,image-cpt,325,1543297,,,32,True,,,,,,,,,
,image-cpt,326,1545947,,,,False,,,,,,,,,
,image-cpt,327,1548582,,,,False,,,,,,,,,
395.0,image-cpt,328,1551233,,,32,True,,,,,,,,,
,image-cpt,329,1553381,,,,False,,,,,,,,,
412.0,image-cpt,330,1556035,,,32,True,,,,,,,,,
,image-cpt,331,1558680,,,,False,,,,,,,,,
,image-cpt,332,1560798,,,,False,,,,,,,,,
387.0,image-cpt,333,1564432,,,32,True,,,,,,,,,
,image-cpt,334,1568080,,,,False,,,,,,,,,
385.0,image-cpt,335,1571229,,,32,True,,,,,,,,,
,image-cpt,336,1573879,,,,False,,,,,,,,,
,image-cpt,337,1577014,,,,False,,,,,,,,,
363.0,image-cpt,338,1580162,,,32,True,,,,,,,,,
,image-cpt,339,1583796,,,,False,,,,,,,,,
,image-cpt,340,1585946,,,,False,,,,,,,,,
,image-cpt,341,1588595,,,,False,,,,,,,,,
55077.0,instructions,342,1643673,,,,,,,,,,,,,
6933.299999952316,bRMS,343,1650991,,,P,,images/rms/f42887_e_001.jpg,training,0.0,400.0,False,True,0.0,63.0,63.0
1182.2000000476835,bRMS,344,1652958,,,Q,,images/rms/f42887_e_001.jpg,training,1.0,400.0,False,True,0.0,63.0,63.0
1899.8000001907349,bRMS,345,1655638,,,P,,images/rms/f42887_e_001.jpg,training,0.0,400.0,False,True,0.0,63.0,63.0
2276.5,bRMS,346,1658711,,,P,,images/rms/f42887_e_001.jpg,training,0.0,400.0,False,True,0.0,63.0,63.0
971.6000001430511,bRMS,347,1660478,,,Q,,images/rms/f42887_e_001.jpg,training,1.0,400.0,False,True,0.0,63.0,63.0
1244.6000001430511,bRMS,348,1662526,,,Q,,images/rms/f42887_e_001.jpg,training,1.0,400.0,False,True,0.0,63.0,63.0
876.5999999046326,bRMS,349,1664191,,,P,,images/rms/f42887_e_001.jpg,training,0.0,400.0,False,True,0.0,63.0,63.0
686.7000000476837,bRMS,350,1665655,,,Q,,images/rms/f42887_e_001.jpg,training,1.0,400.0,False,True,0.0,63.0,63.0
741.3000001907349,bRMS,351,1667174,,,P,,images/rms/f42887_e_001.jpg,training,0.0,400.0,False,True,0.0,63.0,63.0
1831.2999999523165,bRMS,352,1669791,,,P,,images/rms/f42887_e_001.jpg,training,0.0,400.0,False,True,0.0,63.0,63.0
620.2000000476837,bRMS,353,1671207,,,P,,images/rms/f42887_e_001.jpg,training,0.0,400.0,False,True,0.0,63.0,63.0
533.2999999523163,bRMS,354,1672526,,,P,,images/rms/f42887_e_001.jpg,training,0.0,400.0,False,True,0.0,63.0,63.0
621.8000001907349,bRMS,355,1673926,,,P,,images/rms/f42887_e_001.jpg,training,0.0,400.0,False,True,0.0,63.0,63.0
1285.1000001430511,bRMS,356,1675999,,,P,,images/rms/f42887_e_001.jpg,training,0.0,400.0,False,True,0.0,63.0,63.0
722.5999999046326,bRMS,357,1677511,,,P,,images/rms/f42887_e_001.jpg,training,0.0,400.0,False,True,0.0,63.0,63.0
918.0999999046326,bRMS,358,1679207,,,P,,images/rms/f42887_e_001.jpg,training,0.0,400.0,False,True,0.0,63.0,63.0
5537.0,instructions,359,1685154,,,,,,,,,,,,,
2165.7999999523163,bRMS,360,1687686,,,P,,images/rms/f42887_e_258.jpg,main,0.0,400.0,False,True,0.0,63.0,63.0
708.0,bRMS,361,1689167,,,Q,,images/rms/f42887_e_298.jpg,main,1.0,400.0,False,True,0.0,63.0,63.0
1077.2999999523165,bRMS,362,1691014,,,P,,images/rms/f42887_e_001_1.jpg,reversed,0.0,400.0,False,True,0.0,63.0,63.0
783.2999999523163,bRMS,363,1692590,,,P,,images/rms/f42887_e_289_1.jpg,reversed,0.0,400.0,False,True,0.0,63.0,63.0
765.5,bRMS,364,1694143,,,P,,images/rms/f42887_e_064_1.jpg,reversed,0.0,400.0,False,True,0.0,63.0,63.0
772.7000000476837,bRMS,365,1695702,,,P,,images/rms/f42887_e_295.jpg,main,0.0,400.0,False,True,0.0,63.0,63.0
564.7999999523163,bRMS,366,1697039,,,P,,images/rms/f42887_e_161.jpg,main,0.0,400.0,False,True,0.0,63.0,63.0
732.5999999046326,bRMS,367,1698551,,,Q,,images/rms/f42887_e_028.jpg,main,1.0,400.0,False,True,0.0,63.0,63.0
943.7000000476836,bRMS,368,1700270,,,P,,images/rms/f42887_e_072_1.jpg,reversed,0.0,400.0,False,True,0.0,63.0,63.0
542.9000000953674,bRMS,369,1701592,,,Q,,images/rms/f42887_e_252.jpg,main,1.0,400.0,False,True,0.0,63.0,63.0
615.0,bRMS,370,1702991,,,Q,,images/rms/f42887_e_241.jpg,main,1.0,400.0,False,True,0.0,63.0,63.0
925.0999999046326,bRMS,371,1704703,,,Q,,images/rms/f42887_e_293_1.jpg,reversed,1.0,400.0,False,True,0.0,63.0,63.0
968.2000000476836,bRMS,372,1706454,,,P,,images/rms/f42887_e_098.jpg,main,0.0,400.0,False,True,0.0,63.0,63.0
815.5,bRMS,373,1708054,,,Q,,images/rms/f42887_e_005.jpg,main,1.0,400.0,False,True,0.0,63.0,63.0
548.5999999046326,bRMS,374,1709391,,,Q,,images/rms/f42887_e_252_1.jpg,reversed,1.0,400.0,False,True,0.0,63.0,63.0
1180.7000000476835,bRMS,375,1711367,,,P,,images/rms/f42887_e_241_1.jpg,reversed,0.0,400.0,False,True,0.0,63.0,63.0
652.1000001430511,bRMS,376,1712798,,,Q,,images/rms/f42887_e_180_1.jpg,reversed,1.0,400.0,False,True,0.0,63.0,63.0
741.0999999046326,bRMS,377,1714303,,,P,,images/rms/f42887_e_258_1.jpg,reversed,0.0,400.0,False,True,0.0,63.0,63.0
1187.2999999523165,bRMS,378,1716279,,,Q,,images/rms/f42887_e_180.jpg,main,1.0,400.0,False,True,0.0,63.0,63.0
749.0999999046326,bRMS,379,1717799,,,P,,images/rms/f42887_e_005_1.jpg,reversed,0.0,400.0,False,True,0.0,63.0,63.0
1677.8000001907349,bRMS,380,1720255,,,Q,,images/rms/f42887_e_080.jpg,main,1.0,400.0,False,True,0.0,63.0,63.0
876.2000000476837,bRMS,381,1721903,,,P,,images/rms/f42887_e_127.jpg,main,0.0,400.0,False,True,0.0,63.0,63.0
838.8999998569489,bRMS,382,1723551,,,Q,,images/rms/f42887_e_296.jpg,main,1.0,400.0,False,True,0.0,63.0,63.0
644.5,bRMS,383,1724982,,,P,,images/rms/f42887_e_103.jpg,main,0.0,400.0,False,True,0.0,63.0,63.0
655.0999999046326,bRMS,384,1726414,,,P,,images/rms/f42887_e_245.jpg,main,0.0,400.0,False,True,0.0,63.0,63.0
723.3000001907349,bRMS,385,1727922,,,P,,images/rms/f42887_e_028_1.jpg,reversed,0.0,400.0,False,True,0.0,63.0,63.0
957.2999999523164,bRMS,386,1729654,,,Q,,images/rms/f42887_e_127_1.jpg,reversed,1.0,400.0,False,True,0.0,63.0,63.0
838.7999999523163,bRMS,387,1731286,,,P,,images/rms/f42887_e_245_1.jpg,reversed,0.0,400.0,False,True,0.0,63.0,63.0
1091.9000000953674,bRMS,388,1733150,,,P,,images/rms/f42887_e_015_1.jpg,reversed,0.0,400.0,False,True,0.0,63.0,63.0
711.8999998569489,bRMS,389,1734640,,,Q,,images/rms/f42887_e_121.jpg,main,1.0,400.0,False,True,0.0,63.0,63.0
1452.7000000476835,bRMS,390,1736871,,,Q,,images/rms/f42887_e_297_1.jpg,reversed,1.0,400.0,False,True,0.0,63.0,63.0
803.7999999523163,bRMS,391,1738454,,,P,,images/rms/f42887_e_298_1.jpg,reversed,0.0,400.0,False,True,0.0,63.0,63.0
1016.8000001907347,bRMS,392,1740247,,,Q,,images/rms/f42887_e_001.jpg,main,1.0,400.0,False,True,0.0,63.0,63.0
828.2000000476837,bRMS,393,1741863,,,Q,,images/rms/f42887_e_015.jpg,main,1.0,400.0,False,True,0.0,63.0,63.0
1101.0999999046326,bRMS,394,1743751,,,P,,images/rms/f42887_e_053_1.jpg,reversed,0.0,400.0,False,True,0.0,63.0,63.0
1460.3999998569489,bRMS,395,1745989,,,P,,images/rms/f42887_e_259.jpg,main,0.0,400.0,False,True,0.0,63.0,63.0
595.3999998569489,bRMS,396,1747367,,,P,,images/rms/f42887_e_025_1.jpg,reversed,0.0,400.0,False,True,0.0,63.0,63.0
1036.0999999046326,bRMS,397,1749183,,,P,,images/rms/f42887_e_140_1.jpg,reversed,0.0,400.0,False,True,0.0,63.0,63.0
1070.8000001907349,bRMS,398,1751031,,,Q,,images/rms/f42887_e_121_1.jpg,reversed,1.0,400.0,False,True,0.0,63.0,63.0
862.6999998092651,bRMS,399,1752670,,,P,,images/rms/f42887_e_025.jpg,main,0.0,400.0,False,True,0.0,63.0,63.0
525.0,bRMS,400,1753966,,,P,,images/rms/f42887_e_098_1.jpg,reversed,0.0,400.0,False,True,0.0,63.0,63.0
573.7000000476837,bRMS,401,1755335,,,P,,images/rms/f42887_e_259_1.jpg,reversed,0.0,400.0,False,True,0.0,63.0,63.0
962.7000000476836,bRMS,402,1757071,,,Q,,images/rms/f42887_e_064.jpg,main,1.0,400.0,False,True,0.0,63.0,63.0
799.7999999523163,bRMS,403,1758654,,,P,,images/rms/f42887_e_295_1.jpg,reversed,0.0,400.0,False,True,0.0,63.0,63.0
892.7000000476837,bRMS,404,1760319,,,Q,,images/rms/f42887_e_202_1.jpg,reversed,1.0,400.0,False,True,0.0,63.0,63.0
556.9000000953674,bRMS,405,1761656,,,P,,images/rms/f42887_e_156_1.jpg,reversed,0.0,400.0,False,True,0.0,63.0,63.0
468.09999990463257,bRMS,406,1762902,,,Q,,images/rms/f42887_e_058_1.jpg,reversed,1.0,400.0,False,True,0.0,63.0,63.0
605.5,bRMS,407,1764286,,,Q,,images/rms/f42887_e_103_1.jpg,reversed,1.0,400.0,False,True,0.0,63.0,63.0
845.1000001430511,bRMS,408,1765902,,,P,,images/rms/f42887_e_278_1.jpg,reversed,0.0,400.0,False,True,0.0,63.0,63.0
941.0999999046326,bRMS,409,1767622,,,Q,,images/rms/f42887_e_058.jpg,main,1.0,400.0,False,True,0.0,63.0,63.0
708.1000001430511,bRMS,410,1769103,,,P,,images/rms/f42887_e_080_1.jpg,reversed,0.0,400.0,False,True,0.0,63.0,63.0
653.0,bRMS,411,1770535,,,Q,,images/rms/f42887_e_140.jpg,main,1.0,400.0,False,True,0.0,63.0,63.0
613.8999998569489,bRMS,412,1771918,,,P,,images/rms/f42887_e_202.jpg,main,0.0,400.0,False,True,0.0,63.0,63.0
1021.4000000953674,bRMS,413,1773719,,,P,,images/rms/f42887_e_289.jpg,main,0.0,400.0,False,True,0.0,63.0,63.0
2533.5,bRMS,414,1777030,,,Q,,images/rms/f42887_e_161_1.jpg,reversed,1.0,400.0,False,True,0.0,63.0,63.0
780.4000000953674,bRMS,415,1778599,,,Q,,images/rms/f42887_e_293.jpg,main,1.0,400.0,False,True,0.0,63.0,63.0
1204.3999998569489,bRMS,416,1780583,,,P,,images/rms/f42887_e_278.jpg,main,0.0,400.0,False,True,0.0,63.0,63.0
1253.3999998569489,bRMS,417,1782615,,,Q,,images/rms/f42887_e_072.jpg,main,1.0,400.0,False,True,0.0,63.0,63.0
661.2999999523163,bRMS,418,1784046,,,P,,images/rms/f42887_e_296_1.jpg,reversed,0.0,400.0,False,True,0.0,63.0,63.0
710.2000000476837,bRMS,419,1785535,,,Q,,images/rms/f42887_e_156.jpg,main,1.0,400.0,False,True,0.0,63.0,63.0
571.8999998569489,bRMS,420,1786903,,,P,,images/rms/f42887_e_297.jpg,main,0.0,400.0,False,True,0.0,63.0,63.0
1061.4000000953674,bRMS,421,1788736,,,P,,images/rms/f42887_e_053.jpg,main,0.0,400.0,False,True,0.0,63.0,63.0
20374.0,instructions,422,1809522,,,,,,,,,,,,,
2212.699999809265,bRMS,423,1812102,,,Q,,images/rms/f42887_e_121_1.jpg,control_reversed,1.0,400.0,False,True,0.0,63.0,63.0
918.0,bRMS,424,1813799,,,P,,images/rms/f42887_e_298.jpg,control_main,0.0,400.0,False,True,0.0,63.0,63.0
885.2999999523163,bRMS,425,1815471,,,P,,images/rms/f42887_e_005_1.jpg,control_reversed,0.0,400.0,False,True,0.0,63.0,63.0
543.4000000953674,bRMS,426,1816782,,,Q,,images/rms/f42887_e_161.jpg,control_main,1.0,400.0,False,True,0.0,63.0,63.0
551.0,bRMS,427,1818134,,,P,,images/rms/f42887_e_180_1.jpg,control_reversed,0.0,400.0,False,True,0.0,63.0,63.0
739.6999998092651,bRMS,428,1819646,,,Q,,images/rms/f42887_e_297_1.jpg,control_reversed,1.0,400.0,False,True,0.0,63.0,63.0
1381.0999999046326,bRMS,429,1821815,,,P,,images/rms/f42887_e_001_1.jpg,control_reversed,0.0,400.0,False,True,0.0,63.0,63.0
734.2000000476837,bRMS,430,1823327,,,Q,,images/rms/f42887_e_080.jpg,control_main,1.0,400.0,False,True,0.0,63.0,63.0
659.2999999523163,bRMS,431,1824775,,,Q,,images/rms/f42887_e_121.jpg,control_main,1.0,400.0,False,True,0.0,63.0,63.0
1004.0,bRMS,432,1826567,,,Q,,images/rms/f42887_e_241_1.jpg,control_reversed,1.0,400.0,False,True,0.0,63.0,63.0
675.0999999046326,bRMS,433,1828030,,,Q,,images/rms/f42887_e_072_1.jpg,control_reversed,1.0,400.0,False,True,0.0,63.0,63.0
533.7999999523163,bRMS,434,1829350,,,Q,,images/rms/f42887_e_058_1.jpg,control_reversed,1.0,400.0,False,True,0.0,63.0,63.0
1157.7999999523165,bRMS,435,1831295,,,P,,images/rms/f42887_e_259_1.jpg,control_reversed,0.0,400.0,False,True,0.0,63.0,63.0
1238.4000000953674,bRMS,436,1833319,,,P,,images/rms/f42887_e_005.jpg,control_main,0.0,400.0,False,True,0.0,63.0,63.0
1044.7999999523165,bRMS,437,1835150,,,P,,images/rms/f42887_e_258_1.jpg,control_reversed,0.0,400.0,False,True,0.0,63.0,63.0
587.7000000476837,bRMS,438,1836519,,,Q,,images/rms/f42887_e_015.jpg,control_main,1.0,400.0,False,True,0.0,63.0,63.0
1158.2999999523165,bRMS,439,1838447,,,P,,images/rms/f42887_e_289.jpg,control_main,0.0,400.0,False,True,0.0,63.0,63.0
2394.700000047684,bRMS,440,1841615,,,P,,images/rms/f42887_e_245_1.jpg,control_reversed,0.0,400.0,False,True,0.0,63.0,63.0
1176.1999998092651,bRMS,441,1843567,,,P,,images/rms/f42887_e_072.jpg,control_main,0.0,400.0,False,True,0.0,63.0,63.0
524.3999998569489,bRMS,442,1844863,,,P,,images/rms/f42887_e_180.jpg,control_main,0.0,400.0,False,True,0.0,63.0,63.0
1397.4000000953674,bRMS,443,1847047,,,Q,,images/rms/f42887_e_028.jpg,control_main,1.0,400.0,False,True,0.0,63.0,63.0
1282.7999999523165,bRMS,444,1849127,,,Q,,images/rms/f42887_e_028_1.jpg,control_reversed,1.0,400.0,False,True,0.0,63.0,63.0
796.5,bRMS,445,1850718,,,Q,,images/rms/f42887_e_278.jpg,control_main,1.0,400.0,False,True,0.0,63.0,63.0
1069.2000000476835,bRMS,446,1852582,,,Q,,images/rms/f42887_e_259.jpg,control_main,1.0,400.0,False,True,0.0,63.0,63.0
4710.599999904633,bRMS,447,1858063,,,P,,images/rms/f42887_e_015_1.jpg,control_reversed,0.0,400.0,False,True,0.0,63.0,63.0
579.4000000953674,bRMS,448,1859431,,,P,,images/rms/f42887_e_296_1.jpg,control_reversed,0.0,400.0,False,True,0.0,63.0,63.0
436.7999999523163,bRMS,449,1860647,,,P,,images/rms/f42887_e_241.jpg,control_main,0.0,400.0,False,True,0.0,63.0,63.0
821.5999999046326,bRMS,450,1862263,,,P,,images/rms/f42887_e_278_1.jpg,control_reversed,0.0,400.0,False,True,0.0,63.0,63.0
1828.5999999046328,bRMS,451,1864879,,,P,,images/rms/f42887_e_296.jpg,control_main,0.0,400.0,False,True,0.0,63.0,63.0
733.7999999523163,bRMS,452,1866390,,,Q,,images/rms/f42887_e_064.jpg,control_main,1.0,400.0,False,True,0.0,63.0,63.0
973.2000000476836,bRMS,453,1868151,,,Q,,images/rms/f42887_e_202.jpg,control_main,1.0,400.0,False,True,0.0,63.0,63.0
644.7999999523163,bRMS,454,1869574,,,P,,images/rms/f42887_e_127_1.jpg,control_reversed,0.0,400.0,False,True,0.0,63.0,63.0
495.2999999523163,bRMS,455,1870850,,,P,,images/rms/f42887_e_058.jpg,control_main,0.0,400.0,False,True,0.0,63.0,63.0
481.7000000476837,bRMS,456,1872099,,,P,,images/rms/f42887_e_156.jpg,control_main,0.0,400.0,False,True,0.0,63.0,63.0
1021.5,bRMS,457,1873887,,,Q,,images/rms/f42887_e_140_1.jpg,control_reversed,1.0,400.0,False,True,0.0,63.0,63.0
623.0,bRMS,458,1875278,,,P,,images/rms/f42887_e_127.jpg,control_main,0.0,400.0,False,True,0.0,63.0,63.0
918.1000001430511,bRMS,459,1876998,,,P,,images/rms/f42887_e_258.jpg,control_main,0.0,400.0,False,True,0.0,63.0,63.0
516.1999998092651,bRMS,460,1878295,,,Q,,images/rms/f42887_e_098.jpg,control_main,1.0,400.0,False,True,0.0,63.0,63.0
549.7000000476837,bRMS,461,1879623,,,P,,images/rms/f42887_e_252.jpg,control_main,0.0,400.0,False,True,0.0,63.0,63.0
814.2999999523163,bRMS,462,1881214,,,Q,,images/rms/f42887_e_140.jpg,control_main,1.0,400.0,False,True,0.0,63.0,63.0
748.4000000953674,bRMS,463,1882742,,,Q,,images/rms/f42887_e_289_1.jpg,control_reversed,1.0,400.0,False,True,0.0,63.0,63.0
589.1000001430511,bRMS,464,1884127,,,P,,images/rms/f42887_e_025.jpg,control_main,0.0,400.0,False,True,0.0,63.0,63.0
661.5999999046326,bRMS,465,1885575,,,Q,,images/rms/f42887_e_295_1.jpg,control_reversed,1.0,400.0,False,True,0.0,63.0,63.0
797.7999999523163,bRMS,466,1887159,,,P,,images/rms/f42887_e_053.jpg,control_main,0.0,400.0,False,True,0.0,63.0,63.0
1086.2999999523165,bRMS,467,1889030,,,Q,,images/rms/f42887_e_161_1.jpg,control_reversed,1.0,400.0,False,True,0.0,63.0,63.0
997.1000001430511,bRMS,468,1890805,,,P,,images/rms/f42887_e_080_1.jpg,control_reversed,0.0,400.0,False,True,0.0,63.0,63.0
525.7000000476837,bRMS,469,1892114,,,P,,images/rms/f42887_e_064_1.jpg,control_reversed,0.0,400.0,False,True,0.0,63.0,63.0
1054.6999998092651,bRMS,470,1893942,,,Q,,images/rms/f42887_e_103_1.jpg,control_reversed,1.0,400.0,False,True,0.0,63.0,63.0
676.5,bRMS,471,1895399,,,P,,images/rms/f42887_e_001.jpg,control_main,0.0,400.0,False,True,0.0,63.0,63.0
917.0,bRMS,472,1897094,,,Q,,images/rms/f42887_e_293.jpg,control_main,1.0,400.0,False,True,0.0,63.0,63.0
739.7999999523163,bRMS,473,1898614,,,P,,images/rms/f42887_e_103.jpg,control_main,0.0,400.0,False,True,0.0,63.0,63.0
1094.7000000476835,bRMS,474,1900477,,,Q,,images/rms/f42887_e_025_1.jpg,control_reversed,1.0,400.0,False,True,0.0,63.0,63.0
597.6000001430511,bRMS,475,1901862,,,Q,,images/rms/f42887_e_245.jpg,control_main,1.0,400.0,False,True,0.0,63.0,63.0
885.4000000953674,bRMS,476,1903558,,,P,,images/rms/f42887_e_298_1.jpg,control_reversed,0.0,400.0,False,True,0.0,63.0,63.0
1102.2000000476835,bRMS,477,1905446,,,Q,,images/rms/f42887_e_297.jpg,control_main,1.0,400.0,False,True,0.0,63.0,63.0
1014.3999998569489,bRMS,478,1907237,,,Q,,images/rms/f42887_e_293_1.jpg,control_reversed,1.0,400.0,False,True,0.0,63.0,63.0
733.1999998092651,bRMS,479,1908757,,,P,,images/rms/f42887_e_053_1.jpg,control_reversed,0.0,400.0,False,True,0.0,63.0,63.0
815.8999998569489,bRMS,480,1910365,,,Q,,images/rms/f42887_e_156_1.jpg,control_reversed,1.0,400.0,False,True,0.0,63.0,63.0
1213.4000000953674,bRMS,481,1912363,,,Q,,images/rms/f42887_e_252_1.jpg,control_reversed,1.0,400.0,False,True,0.0,63.0,63.0
869.0,bRMS,482,1914006,,,Q,,images/rms/f42887_e_202_1.jpg,control_reversed,1.0,400.0,False,True,0.0,63.0,63.0
526.1000001430511,bRMS,483,1915309,,,Q,,images/rms/f42887_e_098_1.jpg,control_reversed,1.0,400.0,False,True,0.0,63.0,63.0
917.5,bRMS,484,1917015,,,P,,images/rms/f42887_e_295.jpg,control_main,0.0,400.0,False,True,0.0,63.0,63.0
7136.0,instructions,485,1924561,,,,,,,,,,,,,
38816.0,survey-likert,486,1963378,"{""Q0"":3,""Q1"":1,""Q2"":1}",ASRS_2_9,,,,,,,,,,,
29983.0,survey-likert,487,1993362,"{""Q0"":1,""Q1"":1,""Q2"":0}",ASRS_1_3,,,,,,,,,,,
27592.0,survey-likert,488,2020954,"{""Q0"":1,""Q1"":2,""Q2"":1}",ASRS_2_6,,,,,,,,,,,
27200.0,survey-likert,489,2048154,"{""Q0"":1,""Q1"":1,""Q2"":1}",ASRS_2_3,,,,,,,,,,,
23279.0,survey-likert,490,2071434,"{""Q0"":0,""Q1"":1,""Q2"":1}",ASRS_2_0,,,,,,,,,,,
32543.0,survey-likert,491,2103978,"{""Q0"":1,""Q1"":1,""Q2"":1}",ASRS_1_0,,,,,,,,,,,
28391.0,survey-likert,492,2132370,"{""Q0"":4}",LAST_1,,,,,,,,,,,
40446.0,survey-multi-choice,493,2172818,"{""Q0"":""לא""}",,,,,,,,,,,,
1663.0,survey-text,494,2174482,"{""Q0"":""""}",,,,,,,,,,,,
8928.0,survey-likert,495,2183410,"{""Q0"":4}",LAST_4,,,,,,,,,,,
6383.0,survey-multi-choice,496,2189794,"{""Q0"":""לא""}",,,,,,,,,,,,
992.0,survey-text,497,2190786,"{""Q0"":""""}",,,,,,,,,,,,
18432.0,survey-likert,498,2209218,"{""Q0"":4}",DRIVE_1,,,,,,,,,,,
7567.0,survey-text,499,2216786,"{""Q0"":""0""}",,,,,,,,,,,,
19416.0,survey-text,500,2236202,"{""Q0"":""0""}",,,,,,,,,,,,
2664.0,instructions,501,2238866,,,,,,,,,,,,,
