rt,trial_type,trial_index,time_elapsed,responses,name,stimulus,stimulus_block,stimulus_side,key_press,time_post_trial,is_fullscreen,correct,trial_began,block,sub_block,is_stimulus
32667.0,instructions,0,32668,,,,,,,,,,,,,
12492.0,survey-multi-choice,1,45164,"{""Q0"":""אישה"",""Q1"":""ימין"",""Q2"":""עברית""}",,,,,,,,,,,,
7743.0,survey-text,2,52908,"{""Q0"":""23"",""Q1"":""5""}",,,,,,,,,,,,
3422.0,survey-multi-choice,3,56332,"{""Q0"":""לא""}",,,,,,,,,,,,
12954.0,survey-likert,4,69286,"{""Q0"":1}",attention_2,,,,,,,,,,,
30311.0,instructions,5,99597,,,,,,,,,,,,,
2193.4000005722046,bRMS,6,102200,,,images/rms/f42887_e_001.jpg,training,0.0,P,400.0,True,True,0.0,63.0,63.0,
676.3999996185303,bRMS,7,103688,,,images/rms/f42887_e_001.jpg,training,1.0,Q,400.0,True,True,0.0,63.0,63.0,
670.1000003814697,bRMS,8,105151,,,images/rms/f42887_e_001.jpg,training,1.0,Q,400.0,True,True,0.0,63.0,63.0,
610.3000001907349,bRMS,9,106568,,,images/rms/f42887_e_001.jpg,training,1.0,Q,400.0,True,True,0.0,63.0,63.0,
664.8000001907349,bRMS,10,108032,,,images/rms/f42887_e_001.jpg,training,0.0,P,400.0,True,True,0.0,63.0,63.0,
623.3000001907349,bRMS,11,109472,,,images/rms/f42887_e_001.jpg,training,1.0,Q,400.0,True,True,0.0,63.0,63.0,
523.0999994277954,bRMS,12,110800,,,images/rms/f42887_e_001.jpg,training,1.0,Q,400.0,True,True,0.0,63.0,63.0,
610.6000003814697,bRMS,13,112199,,,images/rms/f42887_e_001.jpg,training,0.0,P,400.0,True,True,0.0,63.0,63.0,
550.1999998092651,bRMS,14,113552,,,images/rms/f42887_e_001.jpg,training,1.0,Q,400.0,True,True,0.0,63.0,63.0,
561.6999998092651,bRMS,15,114919,,,images/rms/f42887_e_001.jpg,training,1.0,Q,400.0,True,True,0.0,63.0,63.0,
854.6999998092651,bRMS,16,116583,,,images/rms/f42887_e_001.jpg,training,1.0,Q,400.0,True,True,0.0,63.0,63.0,
694.3999996185303,bRMS,17,118087,,,images/rms/f42887_e_001.jpg,training,0.0,P,400.0,True,True,0.0,63.0,63.0,
524.8000001907349,bRMS,18,119415,,,images/rms/f42887_e_001.jpg,training,0.0,P,400.0,True,True,0.0,63.0,63.0,
555.4000005722046,bRMS,19,120767,,,images/rms/f42887_e_001.jpg,training,0.0,P,400.0,True,True,0.0,63.0,63.0,
555.1999998092651,bRMS,20,122135,,,images/rms/f42887_e_001.jpg,training,1.0,Q,400.0,True,True,0.0,63.0,63.0,
616.8999996185303,bRMS,21,123552,,,images/rms/f42887_e_001.jpg,training,0.0,P,400.0,True,True,0.0,63.0,63.0,
6996.0,instructions,22,130957,,,,,,,,,,,,,
800.8999996185303,bRMS,23,132158,,,images/rms/f42887_e_064_1.jpg,reversed,1.0,Q,400.0,True,True,0.0,63.0,63.0,
583.8000001907349,bRMS,24,133551,,,images/rms/f42887_e_258.jpg,main,1.0,Q,400.0,True,True,0.0,63.0,63.0,
590.6999998092651,bRMS,25,134943,,,images/rms/f42887_e_005.jpg,main,0.0,P,400.0,True,True,0.0,63.0,63.0,
616.5,bRMS,26,136367,,,images/rms/f42887_e_103_1.jpg,reversed,1.0,Q,400.0,True,True,0.0,63.0,63.0,
607.2000007629395,bRMS,27,137775,,,images/rms/f42887_e_245.jpg,main,0.0,P,400.0,True,True,0.0,63.0,63.0,
535.3000001907349,bRMS,28,139101,,,images/rms/f42887_e_293.jpg,main,1.0,Q,400.0,True,True,0.0,63.0,63.0,
644.3000001907349,bRMS,29,140543,,,images/rms/f42887_e_297_1.jpg,reversed,1.0,Q,400.0,True,True,0.0,63.0,63.0,
571.3000001907349,bRMS,30,141918,,,images/rms/f42887_e_140_1.jpg,reversed,0.0,P,400.0,True,True,0.0,63.0,63.0,
604.3999996185303,bRMS,31,143327,,,images/rms/f42887_e_202.jpg,main,1.0,Q,400.0,True,True,0.0,63.0,63.0,
538.8999996185303,bRMS,32,144668,,,images/rms/f42887_e_298_1.jpg,reversed,0.0,P,400.0,True,True,0.0,63.0,63.0,
961.2000007629396,bRMS,33,146431,,,images/rms/f42887_e_252.jpg,main,0.0,P,400.0,True,True,0.0,63.0,63.0,
701.6000003814697,bRMS,34,147935,,,images/rms/f42887_e_127_1.jpg,reversed,1.0,Q,400.0,True,True,0.0,63.0,63.0,
580.5,bRMS,35,149310,,,images/rms/f42887_e_296.jpg,main,1.0,Q,400.0,True,True,0.0,63.0,63.0,
624.5,bRMS,36,150734,,,images/rms/f42887_e_298.jpg,main,0.0,P,400.0,True,True,0.0,63.0,63.0,
831.3999996185303,bRMS,37,152367,,,images/rms/f42887_e_058_1.jpg,reversed,0.0,P,400.0,True,True,0.0,63.0,63.0,
545.8000001907349,bRMS,38,153711,,,images/rms/f42887_e_289_1.jpg,reversed,1.0,Q,400.0,True,True,0.0,63.0,63.0,
654.8000001907349,bRMS,39,155166,,,images/rms/f42887_e_161.jpg,main,1.0,Q,400.0,True,True,0.0,63.0,63.0,
669.5,bRMS,40,156647,,,images/rms/f42887_e_064.jpg,main,0.0,P,400.0,True,True,0.0,63.0,63.0,
678.8000001907349,bRMS,41,158127,,,images/rms/f42887_e_025_1.jpg,reversed,1.0,Q,400.0,True,True,0.0,63.0,63.0,
645.5,bRMS,42,159582,,,images/rms/f42887_e_028_1.jpg,reversed,0.0,P,400.0,True,True,0.0,63.0,63.0,
643.8000001907349,bRMS,43,161023,,,images/rms/f42887_e_156.jpg,main,1.0,Q,400.0,True,True,0.0,63.0,63.0,
599.0,bRMS,44,162414,,,images/rms/f42887_e_001.jpg,main,0.0,P,400.0,True,True,0.0,63.0,63.0,
593.1000003814697,bRMS,45,163815,,,images/rms/f42887_e_072_1.jpg,reversed,1.0,Q,400.0,True,True,0.0,63.0,63.0,
743.8999996185303,bRMS,46,165359,,,images/rms/f42887_e_295.jpg,main,1.0,Q,400.0,True,True,0.0,63.0,63.0,
521.9000005722046,bRMS,47,166679,,,images/rms/f42887_e_278.jpg,main,1.0,Q,400.0,True,True,0.0,63.0,63.0,
595.7000007629395,bRMS,48,168079,,,images/rms/f42887_e_015_1.jpg,reversed,0.0,P,400.0,True,True,0.0,63.0,63.0,
735.2000007629395,bRMS,49,169614,,,images/rms/f42887_e_252_1.jpg,reversed,1.0,Q,400.0,True,True,0.0,63.0,63.0,
639.8000001907349,bRMS,50,171047,,,images/rms/f42887_e_025.jpg,main,1.0,Q,400.0,True,True,0.0,63.0,63.0,
738.5999994277954,bRMS,51,172591,,,images/rms/f42887_e_278_1.jpg,reversed,0.0,P,400.0,True,True,0.0,63.0,63.0,
807.3000001907349,bRMS,52,174214,,,images/rms/f42887_e_053_1.jpg,reversed,0.0,P,400.0,True,True,0.0,63.0,63.0,
570.1000003814697,bRMS,53,175599,,,images/rms/f42887_e_098.jpg,main,0.0,P,400.0,True,True,0.0,63.0,63.0,
576.3000001907349,bRMS,54,176983,,,images/rms/f42887_e_259_1.jpg,reversed,1.0,Q,400.0,True,True,0.0,63.0,63.0,
679.1999998092651,bRMS,55,178464,,,images/rms/f42887_e_293_1.jpg,reversed,1.0,Q,400.0,True,True,0.0,63.0,63.0,
495.1000003814697,bRMS,56,179759,,,images/rms/f42887_e_098_1.jpg,reversed,0.0,P,400.0,True,True,0.0,63.0,63.0,
649.1000003814697,bRMS,57,181215,,,images/rms/f42887_e_156_1.jpg,reversed,0.0,P,400.0,True,True,0.0,63.0,63.0,
544.4000005722046,bRMS,58,182560,,,images/rms/f42887_e_127.jpg,main,1.0,Q,400.0,True,True,0.0,63.0,63.0,
527.5,bRMS,59,183880,,,images/rms/f42887_e_241_1.jpg,reversed,0.0,P,400.0,True,True,0.0,63.0,63.0,
619.1999998092651,bRMS,60,185295,,,images/rms/f42887_e_245_1.jpg,reversed,1.0,Q,400.0,True,True,0.0,63.0,63.0,
477.0,bRMS,61,186575,,,images/rms/f42887_e_080_1.jpg,reversed,0.0,P,400.0,True,True,0.0,63.0,63.0,
585.9000005722046,bRMS,62,187976,,,images/rms/f42887_e_296_1.jpg,reversed,1.0,Q,400.0,True,True,0.0,63.0,63.0,
768.4000005722046,bRMS,63,189549,,,images/rms/f42887_e_140.jpg,main,1.0,Q,400.0,True,True,0.0,63.0,63.0,
625.3000001907349,bRMS,64,190976,,,images/rms/f42887_e_295_1.jpg,reversed,0.0,P,400.0,True,True,0.0,63.0,63.0,
518.9000005722046,bRMS,65,192299,,,images/rms/f42887_e_161_1.jpg,reversed,1.0,Q,400.0,True,True,0.0,63.0,63.0,
537.8000001907349,bRMS,66,193632,,,images/rms/f42887_e_005_1.jpg,reversed,0.0,P,400.0,True,True,0.0,63.0,63.0,
546.2000007629395,bRMS,67,194976,,,images/rms/f42887_e_241.jpg,main,1.0,Q,400.0,True,True,0.0,63.0,63.0,
532.5999994277954,bRMS,68,196315,,,images/rms/f42887_e_058.jpg,main,1.0,Q,400.0,True,True,0.0,63.0,63.0,
538.7000007629395,bRMS,69,197648,,,images/rms/f42887_e_015.jpg,main,0.0,P,400.0,True,True,0.0,63.0,63.0,
481.19999980926514,bRMS,70,198928,,,images/rms/f42887_e_028.jpg,main,1.0,Q,400.0,True,True,0.0,63.0,63.0,
494.0,bRMS,71,200231,,,images/rms/f42887_e_202_1.jpg,reversed,0.0,P,400.0,True,True,0.0,63.0,63.0,
452.5999994277954,bRMS,72,201496,,,images/rms/f42887_e_259.jpg,main,1.0,Q,400.0,True,True,0.0,63.0,63.0,
604.4000005722046,bRMS,73,202896,,,images/rms/f42887_e_001_1.jpg,reversed,0.0,P,400.0,True,True,0.0,63.0,63.0,
620.8000001907349,bRMS,74,204311,,,images/rms/f42887_e_103.jpg,main,1.0,Q,400.0,True,True,0.0,63.0,63.0,
569.5,bRMS,75,205680,,,images/rms/f42887_e_258_1.jpg,reversed,0.0,P,400.0,True,True,0.0,63.0,63.0,
721.6000003814697,bRMS,76,207198,,,images/rms/f42887_e_180.jpg,main,0.0,P,400.0,True,True,0.0,63.0,63.0,
566.6999998092651,bRMS,77,208560,,,images/rms/f42887_e_121_1.jpg,reversed,1.0,Q,400.0,True,True,0.0,63.0,63.0,
534.6999998092651,bRMS,78,209888,,,images/rms/f42887_e_297.jpg,main,1.0,Q,400.0,True,True,0.0,63.0,63.0,
455.5,bRMS,79,211143,,,images/rms/f42887_e_180_1.jpg,reversed,1.0,Q,400.0,True,True,0.0,63.0,63.0,
436.5,bRMS,80,212382,,,images/rms/f42887_e_080.jpg,main,1.0,Q,400.0,True,True,0.0,63.0,63.0,
593.5999994277954,bRMS,81,213776,,,images/rms/f42887_e_289.jpg,main,1.0,Q,400.0,True,True,0.0,63.0,63.0,
607.8000001907349,bRMS,82,215181,,,images/rms/f42887_e_053.jpg,main,0.0,P,400.0,True,True,0.0,63.0,63.0,
544.5999994277954,bRMS,83,216528,,,images/rms/f42887_e_121.jpg,main,0.0,P,400.0,True,True,0.0,63.0,63.0,
608.6000003814697,bRMS,84,217931,,,images/rms/f42887_e_072.jpg,main,0.0,P,400.0,True,True,0.0,63.0,63.0,
6986.0,instructions,85,225326,,,,,,,,,,,,,
,image-cpt,86,226344,,,,,,,,,,,,,False
581.0,image-cpt,87,229477,,,,,,32,,,,,,,True
,image-cpt,88,232099,,,,,,,,,,,,,False
474.0,image-cpt,89,235233,,,,,,32,,,,,,,True
,image-cpt,90,237882,,,,,,,,,,,,,False
,image-cpt,91,240031,,,,,,,,,,,,,False
,image-cpt,92,243666,,,,,,,,,,,,,False
411.0,image-cpt,93,245799,,,,,,32,,,,,,,True
,image-cpt,94,249432,,,,,,,,,,,,,False
,image-cpt,95,252565,,,,,,,,,,,,,False
,image-cpt,96,254714,,,,,,,,,,,,,False
,image-cpt,97,258347,,,,,,,,,,,,,False
,image-cpt,98,261482,,,,,,,,,,,,,False
,image-cpt,99,264130,,,,,,,,,,,,,False
458.0,image-cpt,100,266280,,,,,,32,,,,,,,True
4141.0,instructions,101,270422,,,,,,,,,,,,,
487.0,image-cpt,102,274062,,,,,,32,,,,,,,True
400.0,image-cpt,103,277212,,,,,,32,,,,,,,True
,image-cpt,104,280362,,,,,,,,,,,,,False
,image-cpt,105,282495,,,,,,,,,,,,,False
,image-cpt,106,285145,,,,,,,,,,,,,False
404.0,image-cpt,107,288795,,,,,,32,,,,,,,True
,image-cpt,108,292444,,,,,,,,,,,,,False
384.0,image-cpt,109,296094,,,,,,32,,,,,,,True
,image-cpt,110,299244,,,,,,,,,,,,,False
401.0,image-cpt,111,301394,,,,,,32,,,,,,,True
,image-cpt,112,304043,,,,,,,,,,,,,False
,image-cpt,113,307693,,,,,,,,,,,,,False
,image-cpt,114,310327,,,,,,,,,,,,,False
,image-cpt,115,312476,,,,,,,,,,,,,False
,image-cpt,116,314626,,,,,,,,,,,,,False
,image-cpt,117,317776,,,,,,,,,,,,,False
,image-cpt,118,319926,,,,,,,,,,,,,False
407.0,image-cpt,119,322076,,,,,,32,,,,,,,True
,image-cpt,120,325726,,,,,,,,,,,,,False
,image-cpt,121,328875,,,,,,,,,,,,,False
,image-cpt,122,332525,,,,,,,,,,,,,False
,image-cpt,123,334675,,,,,,,,,,,,,False
,image-cpt,124,337825,,,,,,,,,,,,,False
,image-cpt,125,340959,,,,,,,,,,,,,False
,image-cpt,126,343608,,,,,,,,,,,,,False
437.0,image-cpt,127,346258,,,,,,32,,,,,,,True
,image-cpt,128,349908,,,,,,,,,,,,,False
,image-cpt,129,353557,,,,,,,,,,,,,False
423.0,image-cpt,130,356707,,,,,,32,,,,,,,True
,image-cpt,131,360357,,,,,,,,,,,,,False
,image-cpt,132,362991,,,,,,,,,,,,,False
398.0,image-cpt,133,365640,,,,,,32,,,,,,,True
,image-cpt,134,367790,,,,,,,,,,,,,False
,image-cpt,135,369940,,,,,,,,,,,,,False
,image-cpt,136,372090,,,,,,,,,,,,,False
403.0,image-cpt,137,375223,,,,,,32,,,,,,,True
,image-cpt,138,378873,,,,,,,,,,,,,False
,image-cpt,139,382523,,,,,,,,,,,,,False
,image-cpt,140,386172,,,,,,,,,,,,,False
,image-cpt,141,388322,,,,,,,,,,,,,False
,image-cpt,142,391472,,,,,,,,,,,,,False
,image-cpt,143,394622,,,,,,,,,,,,,False
,image-cpt,144,397255,,,,,,,,,,,,,False
374.0,image-cpt,145,399905,,,,,,32,,,,,,,True
,image-cpt,146,402039,,,,,,,,,,,,,False
,image-cpt,147,405188,,,,,,,,,,,,,False
,image-cpt,148,406205,,,,,,,,,,,,,False
,image-cpt,149,408854,,,,,,,,,,,,,False
,image-cpt,150,412504,,,,,,,,,,,,,False
,image-cpt,151,416154,,,,,,,,,,,,,False
,image-cpt,152,419287,,,,,,,,,,,,,False
374.0,image-cpt,153,422437,,,,,,32,,,,,,,True
408.0,image-cpt,154,425071,,,,,,32,,,,,,,True
,image-cpt,155,428720,,,,,,,,,,,,,False
413.0,image-cpt,156,432369,,,,,,32,,,,,,,True
,image-cpt,157,436019,,,,,,,,,,,,,False
393.0,image-cpt,158,439669,,,,,,32,,,,,,,True
,image-cpt,159,441819,,,,,,,,,,,,,False
,image-cpt,160,443969,,,,,,,,,,,,,False
,image-cpt,161,446103,,,,,,,,,,,,,False
,image-cpt,162,448252,,,,,,,,,,,,,False
,image-cpt,163,450402,,,,,,,,,,,,,False
,image-cpt,164,452535,,,,,,,,,,,,,False
406.0,image-cpt,165,455185,,,,,,32,,,,,,,True
380.0,image-cpt,166,458319,,,,,,32,,,,,,,True
,image-cpt,167,460468,,,,,,,,,,,,,False
,image-cpt,168,463618,,,,,,,,,,,,,False
,image-cpt,169,466268,,,,,,,,,,,,,False
337.0,image-cpt,170,469918,,,,,,32,,,,,,,True
,image-cpt,171,472067,,,,,,,,,,,,,False
,image-cpt,172,475217,,,,,,,,,,,,,False
412.0,image-cpt,173,477867,,,,,,32,,,,,,,True
,image-cpt,174,480517,,,,,,,,,,,,,False
,image-cpt,175,483151,,,,,,,,,,,,,False
415.0,image-cpt,176,486300,,,,,,32,,,,,,,True
,image-cpt,177,489950,,,,,,,,,,,,,False
415.0,image-cpt,178,492583,,,,,,32,,,,,,,True
342.0,image-cpt,179,494733,,,,,,32,,,,,,,True
,image-cpt,180,498367,,,,,,,,,,,,,False
398.0,image-cpt,181,501016,,,,,,32,,,,,,,True
,image-cpt,182,503666,,,,,,,,,,,,,False
,image-cpt,183,506316,,,,,,,,,,,,,False
401.0,image-cpt,184,508465,,,,,,32,,,,,,,True
,image-cpt,185,512115,,,,,,,,,,,,,False
378.0,image-cpt,186,515765,,,,,,32,,,,,,,True
344.0,image-cpt,187,518915,,,,,,32,,,,,,,True
378.0,image-cpt,188,522070,,,,,,32,,,,,,,False
,image-cpt,189,524715,,,,,,,,,,,,,False
,image-cpt,190,526864,,,,,,,,,,,,,False
444.0,image-cpt,191,529014,,,,,,32,,,,,,,True
,image-cpt,192,531664,,,,,,,,,,,,,False
,image-cpt,193,535314,,,,,,,,,,,,,False
507.0,image-cpt,194,538964,,,,,,32,,,,,,,True
,image-cpt,195,541114,,,,,,,,,,,,,False
,image-cpt,196,544763,,,,,,,,,,,,,False
,image-cpt,197,548413,,,,,,,,,,,,,False
,image-cpt,198,552047,,,,,,,,,,,,,False
,image-cpt,199,555696,,,,,,,,,,,,,False
,image-cpt,200,557846,,,,,,,,,,,,,False
,image-cpt,201,561479,,,,,,,,,,,,,False
,image-cpt,202,564129,,,,,,,,,,,,,False
,image-cpt,203,567263,,,,,,,,,,,,,False
,image-cpt,204,569412,,,,,,,,,,,,,False
,image-cpt,205,572062,,,,,,,,,,,,,False
,image-cpt,206,574695,,,,,,,,,,,,,False
422.0,image-cpt,207,576845,,,,,,32,,,,,,,True
464.0,image-cpt,208,579995,,,,,,32,,,,,,,True
,image-cpt,209,582145,,,,,,,,,,,,,False
428.0,image-cpt,210,584794,,,,,,32,,,,,,,True
,image-cpt,211,586928,,,,,,,,,,,,,False
,image-cpt,212,590078,,,,,,,,,,,,,False
,image-cpt,213,592711,,,,,,,,,,,,,False
438.0,image-cpt,214,595861,,,,,,32,,,,,,,True
,image-cpt,215,598010,,,,,,,,,,,,,False
,image-cpt,216,600160,,,,,,,,,,,,,False
,image-cpt,217,603810,,,,,,,,,,,,,False
,image-cpt,218,607460,,,,,,,,,,,,,False
,image-cpt,219,610610,,,,,,,,,,,,,False
,image-cpt,220,614260,,,,,,,,,,,,,False
,image-cpt,221,616409,,,,,,,,,,,,,False
,image-cpt,222,619543,,,,,,,,,,,,,False
518.0,image-cpt,223,622692,,,,,,32,,,,,,,True
,image-cpt,224,625842,,,,,,,,,,,,,False
,image-cpt,225,629492,,,,,,,,,,,,,False
,image-cpt,226,631637,,,,,,,,,,,,,False
,image-cpt,227,635275,,,,,,,,,,,,,False
,image-cpt,228,637425,,,,,,,,,,,,,False
,image-cpt,229,639558,,,,,,,,,,,,,False
,image-cpt,230,642708,,,,,,,,,,,,,False
,image-cpt,231,644858,,,,,,,,,,,,,False
,image-cpt,232,646991,,,,,,,,,,,,,False
,image-cpt,233,650641,,,,,,,,,,,,,False
,image-cpt,234,653291,,,,,,,,,,,,,False
,image-cpt,235,655441,,,,,,,,,,,,,False
,image-cpt,236,659090,,,,,,,,,,,,,False
427.0,image-cpt,237,661240,,,,,,32,,,,,,,True
389.0,image-cpt,238,663890,,,,,,32,,,,,,,True
,image-cpt,239,666540,,,,,,,,,,,,,False
,image-cpt,240,670190,,,,,,,,,,,,,False
,image-cpt,241,672823,,,,,,,,,,,,,False
,image-cpt,242,675473,,,,,,,,,,,,,False
,image-cpt,243,679123,,,,,,,,,,,,,False
,image-cpt,244,681274,,,,,,,,,,,,,False
,image-cpt,245,684422,,,,,,,,,,,,,False
423.0,image-cpt,246,687572,,,,,,32,,,,,,,True
378.0,image-cpt,247,689722,,,,,,32,,,,,,,True
,image-cpt,248,691855,,,,,,,,,,,,,False
,image-cpt,249,695505,,,,,,,,,,,,,False
,image-cpt,250,698639,,,,,,,,,,,,,False
,image-cpt,251,702288,,,,,,,,,,,,,False
,image-cpt,252,705438,,,,,,,,,,,,,False
416.0,image-cpt,253,708071,,,,,,32,,,,,,,True
,image-cpt,254,710721,,,,,,,,,,,,,False
,image-cpt,255,713855,,,,,,,,,,,,,False
,image-cpt,256,716504,,,,,,,,,,,,,False
406.0,image-cpt,257,719654,,,,,,32,,,,,,,True
,image-cpt,258,722804,,,,,,,,,,,,,False
,image-cpt,259,726453,,,,,,,,,,,,,False
,image-cpt,260,729087,,,,,,,,,,,,,False
,image-cpt,261,732736,,,,,,,,,,,,,False
493.0,image-cpt,262,735886,,,,,,32,,,,,,,True
,image-cpt,263,739036,,,,,,,,,,,,,False
,image-cpt,264,742186,,,,,,,,,,,,,False
,image-cpt,265,745319,,,,,,,,,,,,,False
,image-cpt,266,748469,,,,,,,,,,,,,False
,image-cpt,267,751618,,,,,,,,,,,,,False
,image-cpt,268,754268,,,,,,,,,,,,,False
,image-cpt,269,756418,,,,,,,,,,,,,False
,image-cpt,270,759568,,,,,,,,,,,,,False
,image-cpt,271,762718,,,,,,,,,,,,,False
431.0,image-cpt,272,765351,,,,,,32,,,,,,,True
374.0,image-cpt,273,769001,,,,,,32,,,,,,,True
,image-cpt,274,771651,,,,,,,,,,,,,False
,image-cpt,275,774801,,,,,,,,,,,,,False
397.0,image-cpt,276,777450,,,,,,32,,,,,,,True
,image-cpt,277,780100,,,,,,,,,,,,,False
,image-cpt,278,782250,,,,,,,,,,,,,False
,image-cpt,279,784400,,,,,,,,,,,,,False
334.0,image-cpt,280,786550,,,,,,32,,,,,,,True
440.0,image-cpt,281,789183,,,,,,32,,,,,,,True
399.0,image-cpt,282,791833,,,,,,32,,,,,,,True
,image-cpt,283,793967,,,,,,,,,,,,,False
,image-cpt,284,796616,,,,,,,,,,,,,False
374.0,image-cpt,285,799766,,,,,,32,,,,,,,True
407.0,image-cpt,286,802916,,,,,,32,,,,,,,True
,image-cpt,287,806565,,,,,,,,,,,,,False
,image-cpt,288,809715,,,,,,,,,,,,,False
,image-cpt,289,812365,,,,,,,,,,,,,False
,image-cpt,290,814515,,,,,,,,,,,,,False
,image-cpt,291,818165,,,,,,,,,,,,,False
,image-cpt,292,820315,,,,,,,,,,,,,False
499.0,image-cpt,293,822964,,,,,,32,,,,,,,True
553.0,image-cpt,294,825614,,,,,,32,,,,,,,True
,image-cpt,295,827764,,,,,,,,,,,,,False
441.0,image-cpt,296,830414,,,,,,32,,,,,,,True
,image-cpt,297,833064,,,,,,,,,,,,,False
,image-cpt,298,835714,,,,,,,,,,,,,False
476.0,image-cpt,299,839364,,,,,,32,,,,,,,True
442.0,image-cpt,300,841514,,,,,,32,,,,,,,True
451.0,image-cpt,301,844163,,,,,,32,,,,,,,True
,image-cpt,302,847313,,,,,,,,,,,,,False
,image-cpt,303,850446,,,,,,,,,,,,,False
,image-cpt,304,853596,,,,,,,,,,,,,False
,image-cpt,305,855746,,,,,,,,,,,,,False
444.0,image-cpt,306,857896,,,,,,32,,,,,,,True
,image-cpt,307,860546,,,,,,,,,,,,,False
,image-cpt,308,863679,,,,,,,,,,,,,False
,image-cpt,309,867329,,,,,,,,,,,,,False
413.0,image-cpt,310,869463,,,,,,32,,,,,,,True
,image-cpt,311,873112,,,,,,,,,,,,,False
,image-cpt,312,875762,,,,,,,,,,,,,False
,image-cpt,313,878412,,,,,,,,,,,,,False
,image-cpt,314,880562,,,,,,,,,,,,,False
,image-cpt,315,883211,,,,,,,,,,,,,False
,image-cpt,316,886361,,,,,,,,,,,,,False
388.0,image-cpt,317,889495,,,,,,32,,,,,,,True
,image-cpt,318,892144,,,,,,,,,,,,,False
398.0,image-cpt,319,894794,,,,,,32,,,,,,,True
,image-cpt,320,896927,,,,,,,,,,,,,False
382.0,image-cpt,321,899077,,,,,,32,,,,,,,True
393.0,image-cpt,322,901711,,,,,,32,,,,,,,True
,image-cpt,323,904360,,,,,,,,,,,,,False
390.0,image-cpt,324,907010,,,,,,32,,,,,,,True
412.0,image-cpt,325,910143,,,,,,32,,,,,,,True
399.0,image-cpt,326,913293,,,,,,32,,,,,,,True
368.0,image-cpt,327,916926,,,,,,32,,,,,,,True
334.0,image-cpt,328,920575,,,,,,32,,,,,,,True
382.0,image-cpt,329,922725,,,,,,32,,,,,,,True
,image-cpt,330,925875,,,,,,,,,,,,,False
426.0,image-cpt,331,928525,,,,,,32,,,,,,,True
352.0,image-cpt,332,930674,,,,,,32,,,,,,,True
,image-cpt,333,933824,,,,,,,,,,,,,False
,image-cpt,334,936474,,,,,,,,,,,,,False
323.0,image-cpt,335,939124,,,,,,32,,,,,,,True
,image-cpt,336,941274,,,,,,,,,,,,,False
,image-cpt,337,944924,,,,,,,,,,,,,False
433.0,image-cpt,338,947573,,,,,,32,,,,,,,True
,image-cpt,339,951223,,,,,,,,,,,,,False
453.0,image-cpt,340,954873,,,,,,32,,,,,,,True
500.0,image-cpt,341,958023,,,,,,32,,,,,,,True
438.0,image-cpt,342,961673,,,,,,32,,,,,,,True
500.0,image-cpt,343,965322,,,,,,32,,,,,,,True
498.0,image-cpt,344,967972,,,,,,32,,,,,,,True
472.0,image-cpt,345,970606,,,,,,32,,,,,,,True
,image-cpt,346,973756,,,,,,,,,,,,,False
,image-cpt,347,976406,,,,,,,,,,,,,False
,image-cpt,348,979039,,,,,,,,,,,,,False
,image-cpt,349,982689,,,,,,,,,,,,,False
,image-cpt,350,986339,,,,,,,,,,,,,False
,image-cpt,351,988489,,,,,,,,,,,,,False
453.0,image-cpt,352,991639,,,,,,32,,,,,,,True
,image-cpt,353,995289,,,,,,,,,,,,,False
,image-cpt,354,997938,,,,,,,,,,,,,False
,image-cpt,355,1000088,,,,,,,,,,,,,False
,image-cpt,356,1003238,,,,,,,,,,,,,False
600.0,image-cpt,357,1005388,,,,,,32,,,,,,,True
,image-cpt,358,1008038,,,,,,,,,,,,,False
,image-cpt,359,1010671,,,,,,,,,,,,,False
,image-cpt,360,1012821,,,,,,,,,,,,,False
521.0,image-cpt,361,1016471,,,,,,32,,,,,,,True
455.0,image-cpt,362,1019620,,,,,,32,,,,,,,True
,image-cpt,363,1021770,,,,,,,,,,,,,False
,image-cpt,364,1023920,,,,,,,,,,,,,False
,image-cpt,365,1027570,,,,,,,,,,,,,False
,image-cpt,366,1031220,,,,,,,,,,,,,False
,image-cpt,367,1034869,,,,,,,,,,,,,False
440.0,image-cpt,368,1038019,,,,,,32,,,,,,,True
,image-cpt,369,1040669,,,,,,,,,,,,,False
,image-cpt,370,1044303,,,,,,,,,,,,,False
447.0,image-cpt,371,1047952,,,,,,32,,,,,,,True
,image-cpt,372,1050102,,,,,,,,,,,,,False
,image-cpt,373,1053735,,,,,,,,,,,,,False
,image-cpt,374,1055885,,,,,,,,,,,,,False
,image-cpt,375,1059519,,,,,,,,,,,,,False
,image-cpt,376,1062668,,,,,,,,,,,,,False
,image-cpt,377,1066318,,,,,,,,,,,,,False
,image-cpt,378,1067351,,,,,,,,,,,,,False
,image-cpt,379,1071001,,,,,,,,,,,,,False
,image-cpt,380,1074651,,,,,,,,,,,,,False
,image-cpt,381,1076800,,,,,,,,,,,,,False
,image-cpt,382,1079950,,,,,,,,,,,,,False
,image-cpt,383,1083600,,,,,,,,,,,,,False
446.0,image-cpt,384,1086750,,,,,,32,,,,,,,True
,image-cpt,385,1089383,,,,,,,,,,,,,False
,image-cpt,386,1092533,,,,,,,,,,,,,False
425.0,image-cpt,387,1095683,,,,,,32,,,,,,,True
,image-cpt,388,1098833,,,,,,,,,,,,,False
413.0,image-cpt,389,1100982,,,,,,32,,,,,,,True
,image-cpt,390,1104632,,,,,,,,,,,,,False
,image-cpt,391,1107782,,,,,,,,,,,,,False
,image-cpt,392,1110932,,,,,,,,,,,,,False
,image-cpt,393,1114082,,,,,,,,,,,,,False
444.0,image-cpt,394,1116731,,,,,,32,,,,,,,True
,image-cpt,395,1118881,,,,,,,,,,,,,False
428.0,image-cpt,396,1121014,,,,,,32,,,,,,,True
,image-cpt,397,1124164,,,,,,,,,,,,,False
,image-cpt,398,1126814,,,,,,,,,,,,,False
383.0,image-cpt,399,1128964,,,,,,32,,,,,,,True
,image-cpt,400,1132114,,,,,,,,,,,,,False
412.0,image-cpt,401,1135764,,,,,,32,,,,,,,True
,image-cpt,402,1137914,,,,,,,,,,,,,False
,image-cpt,403,1140047,,,,,,,,,,,,,False
,image-cpt,404,1142197,,,,,,,,,,,,,False
425.0,image-cpt,405,1145831,,,,,,32,,,,,,,True
,image-cpt,406,1149480,,,,,,,,,,,,,False
,image-cpt,407,1152629,,,,,,,,,,,,,False
392.0,image-cpt,408,1156264,,,,,,32,,,,,,,True
406.0,image-cpt,409,1159912,,,,,,32,,,,,,,True
,image-cpt,410,1162062,,,,,,,,,,,,,False
,image-cpt,411,1165712,,,,,,,,,,,,,False
,image-cpt,412,1168362,,,,,,,,,,,,,False
,image-cpt,413,1171495,,,,,,,,,,,,,False
,image-cpt,414,1173645,,,,,,,,,,,,,False
449.0,image-cpt,415,1176279,,,,,,32,,,,,,,True
,image-cpt,416,1179928,,,,,,,,,,,,,False
486.0,image-cpt,417,1182578,,,,,,32,,,,,,,True
380.0,image-cpt,418,1185711,,,,,,32,,,,,,,True
,image-cpt,419,1188361,,,,,,,,,,,,,False
,image-cpt,420,1190495,,,,,,,,,,,,,False
415.0,image-cpt,421,1193627,,,,,,32,,,,,,,True
20835.0,instructions,422,1214462,,,,,,,,,,,,,
1822.199999809265,bRMS,423,1216672,,,images/rms/f42887_e_053.jpg,control_main,0.0,P,400.0,True,True,0.0,63.0,63.0,
818.0,bRMS,424,1218287,,,images/rms/f42887_e_252.jpg,control_main,1.0,Q,400.0,True,True,0.0,63.0,63.0,
593.1000003814697,bRMS,425,1219675,,,images/rms/f42887_e_297_1.jpg,control_reversed,0.0,P,400.0,True,True,0.0,63.0,63.0,
602.0,bRMS,426,1221071,,,images/rms/f42887_e_295_1.jpg,control_reversed,1.0,Q,400.0,True,True,0.0,63.0,63.0,
717.8000001907349,bRMS,427,1222592,,,images/rms/f42887_e_015_1.jpg,control_reversed,1.0,Q,400.0,True,True,0.0,63.0,63.0,
609.1000003814697,bRMS,428,1224000,,,images/rms/f42887_e_296.jpg,control_main,1.0,Q,400.0,True,True,0.0,63.0,63.0,
583.0999994277954,bRMS,429,1225384,,,images/rms/f42887_e_058_1.jpg,control_reversed,1.0,Q,400.0,True,True,0.0,63.0,63.0,
641.0,bRMS,430,1226832,,,images/rms/f42887_e_127.jpg,control_main,0.0,P,400.0,True,True,0.0,63.0,63.0,
696.3999996185303,bRMS,431,1228341,,,images/rms/f42887_e_296_1.jpg,control_reversed,0.0,P,400.0,True,True,0.0,63.0,63.0,
822.7999992370605,bRMS,432,1229968,,,images/rms/f42887_e_245.jpg,control_main,1.0,Q,400.0,True,True,0.0,63.0,63.0,
567.3999996185303,bRMS,433,1231352,,,images/rms/f42887_e_064_1.jpg,control_reversed,1.0,Q,400.0,True,True,0.0,63.0,63.0,
626.3999996185303,bRMS,434,1232784,,,images/rms/f42887_e_258.jpg,control_main,1.0,Q,400.0,True,True,0.0,63.0,63.0,
536.0,bRMS,435,1234124,,,images/rms/f42887_e_202_1.jpg,control_reversed,0.0,P,400.0,True,True,0.0,63.0,63.0,
742.8000001907349,bRMS,436,1235664,,,images/rms/f42887_e_025_1.jpg,control_reversed,0.0,P,400.0,True,True,0.0,63.0,63.0,
633.3999996185303,bRMS,437,1237087,,,images/rms/f42887_e_245_1.jpg,control_reversed,1.0,Q,400.0,True,True,0.0,63.0,63.0,
592.7999992370605,bRMS,438,1238474,,,images/rms/f42887_e_161.jpg,control_main,0.0,P,400.0,True,True,0.0,63.0,63.0,
537.0,bRMS,439,1239807,,,images/rms/f42887_e_259_1.jpg,control_reversed,0.0,P,400.0,True,True,0.0,63.0,63.0,
624.2999992370605,bRMS,440,1241232,,,images/rms/f42887_e_180.jpg,control_main,0.0,P,400.0,True,True,0.0,63.0,63.0,
616.6999998092651,bRMS,441,1242656,,,images/rms/f42887_e_005.jpg,control_main,1.0,Q,400.0,True,True,0.0,63.0,63.0,
639.5,bRMS,442,1244088,,,images/rms/f42887_e_098.jpg,control_main,1.0,Q,400.0,True,True,0.0,63.0,63.0,
585.5,bRMS,443,1245472,,,images/rms/f42887_e_293_1.jpg,control_reversed,0.0,P,400.0,True,True,0.0,63.0,63.0,
464.29999923706055,bRMS,444,1246735,,,images/rms/f42887_e_103_1.jpg,control_reversed,0.0,Q,400.0,True,False,0.0,63.0,63.0,
742.5,bRMS,445,1248288,,,images/rms/f42887_e_293.jpg,control_main,1.0,Q,400.0,True,True,0.0,63.0,63.0,
677.5,bRMS,446,1249751,,,images/rms/f42887_e_028.jpg,control_main,1.0,Q,400.0,True,True,0.0,63.0,63.0,
690.4000005722046,bRMS,447,1251256,,,images/rms/f42887_e_098_1.jpg,control_reversed,0.0,P,400.0,True,True,0.0,63.0,63.0,
680.0,bRMS,448,1252735,,,images/rms/f42887_e_058.jpg,control_main,1.0,Q,400.0,True,True,0.0,63.0,63.0,
625.8000001907349,bRMS,449,1254151,,,images/rms/f42887_e_289.jpg,control_main,0.0,P,400.0,True,True,0.0,63.0,63.0,
513.1999998092651,bRMS,450,1255471,,,images/rms/f42887_e_015.jpg,control_main,1.0,Q,400.0,True,True,0.0,63.0,63.0,
785.5999994277954,bRMS,451,1257056,,,images/rms/f42887_e_140.jpg,control_main,0.0,P,400.0,True,True,0.0,63.0,63.0,
1183.3999996185305,bRMS,452,1259039,,,images/rms/f42887_e_278_1.jpg,control_reversed,0.0,P,400.0,True,True,0.0,63.0,63.0,
532.0,bRMS,453,1260367,,,images/rms/f42887_e_156.jpg,control_main,0.0,P,400.0,True,True,0.0,63.0,63.0,
642.5,bRMS,454,1261806,,,images/rms/f42887_e_202.jpg,control_main,1.0,Q,400.0,True,True,0.0,63.0,63.0,
640.5,bRMS,455,1263248,,,images/rms/f42887_e_241.jpg,control_main,0.0,P,400.0,True,True,0.0,63.0,63.0,
969.5,bRMS,456,1265022,,,images/rms/f42887_e_297.jpg,control_main,1.0,Q,400.0,True,True,0.0,63.0,63.0,
765.6999998092651,bRMS,457,1266606,,,images/rms/f42887_e_080.jpg,control_main,1.0,Q,400.0,True,True,0.0,63.0,63.0,
559.9000005722046,bRMS,458,1267967,,,images/rms/f42887_e_298_1.jpg,control_reversed,1.0,Q,400.0,True,True,0.0,63.0,63.0,
522.0,bRMS,459,1269295,,,images/rms/f42887_e_180_1.jpg,control_reversed,0.0,P,400.0,True,True,0.0,63.0,63.0,
695.7999992370605,bRMS,460,1270784,,,images/rms/f42887_e_005_1.jpg,control_reversed,0.0,P,400.0,True,True,0.0,63.0,63.0,
614.3999996185303,bRMS,461,1272205,,,images/rms/f42887_e_278.jpg,control_main,1.0,Q,400.0,True,True,0.0,63.0,63.0,
475.5,bRMS,462,1273471,,,images/rms/f42887_e_072.jpg,control_main,0.0,P,400.0,True,True,0.0,63.0,63.0,
654.5,bRMS,463,1274927,,,images/rms/f42887_e_080_1.jpg,control_reversed,1.0,Q,400.0,True,True,0.0,63.0,63.0,
792.0999994277954,bRMS,464,1276512,,,images/rms/f42887_e_289_1.jpg,control_reversed,1.0,Q,400.0,True,True,0.0,63.0,63.0,
665.6999998092651,bRMS,465,1277967,,,images/rms/f42887_e_001.jpg,control_main,0.0,P,400.0,True,True,0.0,63.0,63.0,
959.6999998092653,bRMS,466,1279722,,,images/rms/f42887_e_252_1.jpg,control_reversed,1.0,Q,400.0,True,True,0.0,63.0,63.0,
665.5,bRMS,467,1281184,,,images/rms/f42887_e_072_1.jpg,control_reversed,0.0,P,400.0,True,True,0.0,63.0,63.0,
819.8999996185303,bRMS,468,1282800,,,images/rms/f42887_e_161_1.jpg,control_reversed,1.0,Q,400.0,True,True,0.0,63.0,63.0,
648.6999998092651,bRMS,469,1284256,,,images/rms/f42887_e_241_1.jpg,control_reversed,0.0,P,400.0,True,True,0.0,63.0,63.0,
517.1999998092651,bRMS,470,1285568,,,images/rms/f42887_e_064.jpg,control_main,1.0,Q,400.0,True,True,0.0,63.0,63.0,
576.5,bRMS,471,1286952,,,images/rms/f42887_e_295.jpg,control_main,0.0,P,400.0,True,True,0.0,63.0,63.0,
506.9000005722046,bRMS,472,1288255,,,images/rms/f42887_e_121.jpg,control_main,0.0,P,400.0,True,True,0.0,63.0,63.0,
512.9000005722046,bRMS,473,1289567,,,images/rms/f42887_e_156_1.jpg,control_reversed,0.0,P,400.0,True,True,0.0,63.0,63.0,
624.3999996185303,bRMS,474,1290984,,,images/rms/f42887_e_258_1.jpg,control_reversed,1.0,Q,400.0,True,True,0.0,63.0,63.0,
687.3000001907349,bRMS,475,1292488,,,images/rms/f42887_e_121_1.jpg,control_reversed,1.0,Q,400.0,True,True,0.0,63.0,63.0,
728.4000005722046,bRMS,476,1294016,,,images/rms/f42887_e_025.jpg,control_main,1.0,Q,400.0,True,True,0.0,63.0,63.0,
606.0,bRMS,477,1295421,,,images/rms/f42887_e_028_1.jpg,control_reversed,1.0,Q,400.0,True,True,0.0,63.0,63.0,
679.6999998092651,bRMS,478,1296896,,,images/rms/f42887_e_127_1.jpg,control_reversed,0.0,P,400.0,True,True,0.0,63.0,63.0,
472.1000003814697,bRMS,479,1298155,,,images/rms/f42887_e_053_1.jpg,control_reversed,0.0,P,400.0,True,True,0.0,63.0,63.0,
442.5,bRMS,480,1299388,,,images/rms/f42887_e_259.jpg,control_main,0.0,P,400.0,True,True,0.0,63.0,63.0,
562.7000007629395,bRMS,481,1300751,,,images/rms/f42887_e_298.jpg,control_main,1.0,Q,400.0,True,True,0.0,63.0,63.0,
688.1999998092651,bRMS,482,1302249,,,images/rms/f42887_e_103.jpg,control_main,1.0,Q,400.0,True,True,0.0,63.0,63.0,
560.3000001907349,bRMS,483,1303616,,,images/rms/f42887_e_001_1.jpg,control_reversed,0.0,P,400.0,True,True,0.0,63.0,63.0,
636.0,bRMS,484,1305054,,,images/rms/f42887_e_140_1.jpg,control_reversed,0.0,P,400.0,True,True,0.0,63.0,63.0,
6072.0,instructions,485,1311535,,,,,,,,,,,,,
24463.0,survey-likert,486,1335999,"{""Q0"":1,""Q1"":1,""Q2"":1}",ASRS_2_6,,,,,,,,,,,
30863.0,survey-likert,487,1366863,"{""Q0"":2,""Q1"":1,""Q2"":1}",ASRS_1_3,,,,,,,,,,,
20758.0,survey-likert,488,1387623,"{""Q0"":1,""Q1"":1,""Q2"":1}",ASRS_2_0,,,,,,,,,,,
23264.0,survey-likert,489,1410887,"{""Q0"":2,""Q1"":1,""Q2"":2}",ASRS_2_9,,,,,,,,,,,
18519.0,survey-likert,490,1429407,"{""Q0"":1,""Q1"":1,""Q2"":1}",ASRS_1_0,,,,,,,,,,,
15383.0,survey-likert,491,1444792,"{""Q0"":1,""Q1"":2,""Q2"":0}",ASRS_2_3,,,,,,,,,,,
6567.0,survey-likert,492,1451359,"{""Q0"":4}",LAST_1,,,,,,,,,,,
3790.0,survey-multi-choice,493,1455151,"{""Q0"":""לא""}",,,,,,,,,,,,
1359.0,survey-text,494,1456512,"{""Q0"":""""}",,,,,,,,,,,,
5479.0,survey-likert,495,1461991,"{""Q0"":4}",LAST_4,,,,,,,,,,,
2671.0,survey-multi-choice,496,1464663,"{""Q0"":""לא""}",,,,,,,,,,,,
1072.0,survey-text,497,1465735,"{""Q0"":""""}",,,,,,,,,,,,
25120.0,survey-likert,498,1490855,"{""Q0"":3}",DRIVE_1,,,,,,,,,,,
23935.0,survey-text,499,1514791,"{""Q0"":""1""}",,,,,,,,,,,,
7056.0,survey-text,500,1521847,"{""Q0"":""0""}",,,,,,,,,,,,
2376.0,instructions,501,1524223,,,,,,,,,,,,,
