rt,trial_type,trial_index,time_elapsed,responses,name,stimulus,stimulus_block,stimulus_side,key_press,time_post_trial,is_fullscreen,correct,trial_began,block,sub_block,is_stimulus
20716.0,instructions,0,20717,,,,,,,,,,,,,
5261.0,survey-multi-choice,1,25981,"{""Q0"":""אישה"",""Q1"":""ימין"",""Q2"":""עברית""}",,,,,,,,,,,,
7375.0,survey-text,2,33357,"{""Q0"":""29"",""Q1"":""20""}",,,,,,,,,,,,
2783.0,survey-multi-choice,3,36141,"{""Q0"":""כן""}",,,,,,,,,,,,
3814.0,survey-likert,4,39957,"{""Q0"":""""}",attention_2,,,,,,,,,,,
23600.0,instructions,5,63557,,,,,,,,,,,,,
1988.20000076294,bRMS,6,65936,,,images/rms/f42887_e_001.jpg,training,1.0,Q,400.0,True,True,0.0,63.0,63.0,
1412.9000005722046,bRMS,7,68152,,,images/rms/f42887_e_001.jpg,training,1.0,Q,400.0,True,True,0.0,63.0,63.0,
653.0,bRMS,8,69616,,,images/rms/f42887_e_001.jpg,training,1.0,Q,400.0,True,True,0.0,63.0,63.0,
557.3999996185303,bRMS,9,70983,,,images/rms/f42887_e_001.jpg,training,1.0,Q,400.0,True,True,0.0,63.0,63.0,
663.3999996185303,bRMS,10,72471,,,images/rms/f42887_e_001.jpg,training,0.0,P,400.0,True,True,0.0,63.0,63.0,
735.6000003814697,bRMS,11,74015,,,images/rms/f42887_e_001.jpg,training,1.0,Q,400.0,True,True,0.0,63.0,63.0,
586.8000001907349,bRMS,12,75401,,,images/rms/f42887_e_001.jpg,training,0.0,P,400.0,True,True,0.0,63.0,63.0,
606.1999998092651,bRMS,13,76816,,,images/rms/f42887_e_001.jpg,training,0.0,P,400.0,True,True,0.0,63.0,63.0,
542.0,bRMS,14,78167,,,images/rms/f42887_e_001.jpg,training,1.0,Q,400.0,True,True,0.0,63.0,63.0,
594.5999994277954,bRMS,15,79551,,,images/rms/f42887_e_001.jpg,training,0.0,P,400.0,True,True,0.0,63.0,63.0,
1287.3999996185305,bRMS,16,81648,,,images/rms/f42887_e_001.jpg,training,1.0,Q,400.0,True,True,0.0,63.0,63.0,
472.5,bRMS,17,82935,,,images/rms/f42887_e_001.jpg,training,1.0,Q,400.0,True,True,0.0,63.0,63.0,
862.5999994277954,bRMS,18,84607,,,images/rms/f42887_e_001.jpg,training,0.0,P,400.0,True,True,0.0,63.0,63.0,
585.7000007629395,bRMS,19,85983,,,images/rms/f42887_e_001.jpg,training,0.0,P,400.0,True,True,0.0,63.0,63.0,
529.3000001907349,bRMS,20,87320,,,images/rms/f42887_e_001.jpg,training,0.0,P,400.0,True,True,0.0,63.0,63.0,
523.4000005722046,bRMS,21,88647,,,images/rms/f42887_e_001.jpg,training,0.0,P,400.0,True,True,0.0,63.0,63.0,
3095.0,instructions,22,92157,,,,,,,,,,,,,
895.0,bRMS,23,93448,,,images/rms/f42887_e_161.jpg,main,0.0,P,400.0,True,True,0.0,63.0,63.0,
556.3000001907349,bRMS,24,94799,,,images/rms/f42887_e_103_1.jpg,reversed,1.0,Q,400.0,True,True,0.0,63.0,63.0,
645.8000001907349,bRMS,25,96247,,,images/rms/f42887_e_053_1.jpg,reversed,0.0,P,400.0,True,True,0.0,63.0,63.0,
564.1000003814697,bRMS,26,97631,,,images/rms/f42887_e_298_1.jpg,reversed,1.0,Q,400.0,True,True,0.0,63.0,63.0,
939.8000001907347,bRMS,27,99383,,,images/rms/f42887_e_180_1.jpg,reversed,1.0,Q,400.0,True,True,0.0,63.0,63.0,
703.1999998092651,bRMS,28,100886,,,images/rms/f42887_e_180.jpg,main,1.0,Q,400.0,True,True,0.0,63.0,63.0,
743.3000001907349,bRMS,29,102415,,,images/rms/f42887_e_121_1.jpg,reversed,0.0,P,400.0,True,True,0.0,63.0,63.0,
574.5,bRMS,30,103800,,,images/rms/f42887_e_161_1.jpg,reversed,1.0,Q,400.0,True,True,0.0,63.0,63.0,
577.8999996185303,bRMS,31,105184,,,images/rms/f42887_e_252.jpg,main,0.0,P,400.0,True,True,0.0,63.0,63.0,
994.8000001907347,bRMS,32,106984,,,images/rms/f42887_e_258_1.jpg,reversed,1.0,Q,400.0,True,True,0.0,63.0,63.0,
828.3000001907349,bRMS,33,108615,,,images/rms/f42887_e_296.jpg,main,0.0,P,400.0,True,True,0.0,63.0,63.0,
1090.6000003814695,bRMS,34,110502,,,images/rms/f42887_e_293_1.jpg,reversed,0.0,P,400.0,True,True,0.0,63.0,63.0,
907.0,bRMS,35,112215,,,images/rms/f42887_e_258.jpg,main,0.0,P,400.0,True,True,0.0,63.0,63.0,
842.3000001907349,bRMS,36,113863,,,images/rms/f42887_e_241_1.jpg,reversed,1.0,Q,400.0,True,True,0.0,63.0,63.0,
853.9000005722046,bRMS,37,115512,,,images/rms/f42887_e_289_1.jpg,reversed,0.0,P,400.0,True,True,0.0,63.0,63.0,
836.8999996185303,bRMS,38,117167,,,images/rms/f42887_e_028_1.jpg,reversed,1.0,Q,400.0,True,True,0.0,63.0,63.0,
709.3000001907349,bRMS,39,118679,,,images/rms/f42887_e_058_1.jpg,reversed,0.0,P,400.0,True,True,0.0,63.0,63.0,
673.9000005722046,bRMS,40,120151,,,images/rms/f42887_e_278.jpg,main,0.0,P,400.0,True,True,0.0,63.0,63.0,
588.0,bRMS,41,121544,,,images/rms/f42887_e_241.jpg,main,0.0,P,400.0,True,True,0.0,63.0,63.0,
776.1999998092651,bRMS,42,123127,,,images/rms/f42887_e_245.jpg,main,1.0,Q,400.0,True,True,0.0,63.0,63.0,
857.2000007629395,bRMS,43,124792,,,images/rms/f42887_e_127_1.jpg,reversed,0.0,P,400.0,True,True,0.0,63.0,63.0,
553.0,bRMS,44,126135,,,images/rms/f42887_e_295_1.jpg,reversed,0.0,P,400.0,True,True,0.0,63.0,63.0,
484.69999980926514,bRMS,45,127416,,,images/rms/f42887_e_005_1.jpg,reversed,0.0,P,400.0,True,True,0.0,63.0,63.0,
1052.0,bRMS,46,129263,,,images/rms/f42887_e_245_1.jpg,reversed,0.0,P,400.0,True,True,0.0,63.0,63.0,
747.8999996185303,bRMS,47,130816,,,images/rms/f42887_e_001.jpg,main,1.0,Q,400.0,True,True,0.0,63.0,63.0,
1092.8000001907349,bRMS,48,132711,,,images/rms/f42887_e_297_1.jpg,reversed,0.0,P,400.0,True,True,0.0,63.0,63.0,
871.6000003814697,bRMS,49,134400,,,images/rms/f42887_e_098.jpg,main,1.0,Q,400.0,True,True,0.0,63.0,63.0,
1062.0999994277954,bRMS,50,136263,,,images/rms/f42887_e_289.jpg,main,1.0,Q,400.0,True,True,0.0,63.0,63.0,
592.3000001907349,bRMS,51,137648,,,images/rms/f42887_e_278_1.jpg,reversed,0.0,P,400.0,True,True,0.0,63.0,63.0,
565.8999996185303,bRMS,52,139015,,,images/rms/f42887_e_072_1.jpg,reversed,1.0,Q,400.0,True,True,0.0,63.0,63.0,
1181.6000003814695,bRMS,53,141000,,,images/rms/f42887_e_025.jpg,main,1.0,Q,400.0,True,True,0.0,63.0,63.0,
698.8999996185303,bRMS,54,142511,,,images/rms/f42887_e_140.jpg,main,0.0,P,400.0,True,True,0.0,63.0,63.0,
650.6000003814697,bRMS,55,143975,,,images/rms/f42887_e_080.jpg,main,1.0,Q,400.0,True,True,0.0,63.0,63.0,
563.9000005722046,bRMS,56,145368,,,images/rms/f42887_e_293.jpg,main,1.0,Q,400.0,True,True,0.0,63.0,63.0,
974.1999998092653,bRMS,57,147144,,,images/rms/f42887_e_072.jpg,main,1.0,Q,400.0,True,True,0.0,63.0,63.0,
481.4000005722046,bRMS,58,148440,,,images/rms/f42887_e_015.jpg,main,1.0,Q,400.0,True,True,0.0,63.0,63.0,
820.1000003814697,bRMS,59,150063,,,images/rms/f42887_e_296_1.jpg,reversed,1.0,Q,400.0,True,True,0.0,63.0,63.0,
466.9000005722046,bRMS,60,151334,,,images/rms/f42887_e_156.jpg,main,1.0,Q,400.0,True,True,0.0,63.0,63.0,
477.19999980926514,bRMS,61,152617,,,images/rms/f42887_e_298.jpg,main,1.0,Q,400.0,True,True,0.0,63.0,63.0,
752.6000003814697,bRMS,62,154167,,,images/rms/f42887_e_028.jpg,main,0.0,P,400.0,True,True,0.0,63.0,63.0,
699.6999998092651,bRMS,63,155664,,,images/rms/f42887_e_001_1.jpg,reversed,1.0,Q,400.0,True,True,0.0,63.0,63.0,
492.1000003814697,bRMS,64,156966,,,images/rms/f42887_e_121.jpg,main,0.0,P,400.0,True,True,0.0,63.0,63.0,
652.5,bRMS,65,158424,,,images/rms/f42887_e_202_1.jpg,reversed,1.0,Q,400.0,True,True,0.0,63.0,63.0,
627.8000001907349,bRMS,66,159863,,,images/rms/f42887_e_064.jpg,main,0.0,P,400.0,True,True,0.0,63.0,63.0,
640.3999996185303,bRMS,67,161296,,,images/rms/f42887_e_098_1.jpg,reversed,0.0,P,400.0,True,True,0.0,63.0,63.0,
496.30000019073486,bRMS,68,162599,,,images/rms/f42887_e_025_1.jpg,reversed,0.0,P,400.0,True,True,0.0,63.0,63.0,
492.20000076293945,bRMS,69,163895,,,images/rms/f42887_e_252_1.jpg,reversed,0.0,P,400.0,True,True,0.0,63.0,63.0,
606.3999996185303,bRMS,70,165299,,,images/rms/f42887_e_127.jpg,main,1.0,Q,400.0,True,True,0.0,63.0,63.0,
596.8000001907349,bRMS,71,166696,,,images/rms/f42887_e_297.jpg,main,1.0,Q,400.0,True,True,0.0,63.0,63.0,
718.0,bRMS,72,168215,,,images/rms/f42887_e_202.jpg,main,1.0,Q,400.0,True,True,0.0,63.0,63.0,
558.0,bRMS,73,169575,,,images/rms/f42887_e_080_1.jpg,reversed,1.0,Q,400.0,True,True,0.0,63.0,63.0,
566.0,bRMS,74,170943,,,images/rms/f42887_e_259.jpg,main,1.0,Q,400.0,True,True,0.0,63.0,63.0,
501.20000076293945,bRMS,75,172248,,,images/rms/f42887_e_103.jpg,main,1.0,Q,400.0,True,True,0.0,63.0,63.0,
1581.5,bRMS,76,174632,,,images/rms/f42887_e_295.jpg,main,1.0,Q,400.0,True,True,0.0,63.0,63.0,
938.6999998092653,bRMS,77,176384,,,images/rms/f42887_e_053.jpg,main,1.0,Q,400.0,True,True,0.0,63.0,63.0,
742.7000007629395,bRMS,78,177928,,,images/rms/f42887_e_005.jpg,main,0.0,P,400.0,True,True,0.0,63.0,63.0,
523.6999998092651,bRMS,79,179255,,,images/rms/f42887_e_058.jpg,main,1.0,Q,400.0,True,True,0.0,63.0,63.0,
517.6000003814697,bRMS,80,180582,,,images/rms/f42887_e_156_1.jpg,reversed,0.0,P,400.0,True,True,0.0,63.0,63.0,
571.6000003814697,bRMS,81,181960,,,images/rms/f42887_e_140_1.jpg,reversed,0.0,P,400.0,True,True,0.0,63.0,63.0,
520.0999994277954,bRMS,82,183281,,,images/rms/f42887_e_064_1.jpg,reversed,0.0,P,400.0,True,True,0.0,63.0,63.0,
1317.0,bRMS,83,185398,,,images/rms/f42887_e_259_1.jpg,reversed,0.0,P,400.0,True,True,0.0,63.0,63.0,
573.5,bRMS,84,186783,,,images/rms/f42887_e_015_1.jpg,reversed,1.0,Q,400.0,True,True,0.0,63.0,63.0,
15175.0,instructions,85,202381,,,,,,,,,,,,,
,image-cpt,86,203399,,,,,,,,,,,,,False
,image-cpt,87,206534,,,,,,,,,,,,,False
,image-cpt,88,209183,,,,,,,,,,,,,False
,image-cpt,89,211817,,,,,,,,,,,,,False
,image-cpt,90,213965,,,,,,,,,,,,,False
,image-cpt,91,217098,,,,,,,,,,,,,False
361.0,image-cpt,92,219732,,,,,,32,,,,,,,True
352.0,image-cpt,93,221882,,,,,,32,,,,,,,True
,image-cpt,94,225016,,,,,,,,,,,,,False
,image-cpt,95,227165,,,,,,,,,,,,,False
343.0,image-cpt,96,230799,,,,,,32,,,,,,,True
468.0,image-cpt,97,234432,,,,,,32,,,,,,,True
,image-cpt,98,238066,,,,,,,,,,,,,False
,image-cpt,99,241699,,,,,,,,,,,,,False
,image-cpt,100,243848,,,,,,,,,,,,,False
2813.0,instructions,101,246661,,,,,,,,,,,,,
,image-cpt,102,249295,,,,,,,,,,,,,False
292.0,image-cpt,103,252928,,,,,,32,,,,,,,True
,image-cpt,104,256578,,,,,,,,,,,,,False
,image-cpt,105,258728,,,,,,,,,,,,,False
397.0,image-cpt,106,261378,,,,,,32,,,,,,,True
370.0,image-cpt,107,264028,,,,,,32,,,,,,,True
,image-cpt,108,266678,,,,,,,,,,,,,False
,image-cpt,109,268827,,,,,,,,,,,,,False
,image-cpt,110,270977,,,,,,,,,,,,,False
354.0,image-cpt,111,273627,,,,,,32,,,,,,,True
344.0,image-cpt,112,276777,,,,,,32,,,,,,,False
,image-cpt,113,279910,,,,,,,,,,,,,False
,image-cpt,114,283560,,,,,,,,,,,,,False
413.0,image-cpt,115,286210,,,,,,32,,,,,,,True
,image-cpt,116,289360,,,,,,,,,,,,,False
,image-cpt,117,291493,,,,,,,,,,,,,False
,image-cpt,118,294643,,,,,,,,,,,,,False
,image-cpt,119,296793,,,,,,,,,,,,,False
,image-cpt,120,297826,,,,,,,,,,,,,False
,image-cpt,121,300476,,,,,,,,,,,,,False
,image-cpt,122,303126,,,,,,,,,,,,,False
,image-cpt,123,306275,,,,,,,,,,,,,False
,image-cpt,124,308925,,,,,,,,,,,,,False
,image-cpt,125,311075,,,,,,,,,,,,,False
,image-cpt,126,314225,,,,,,,,,,,,,False
419.0,image-cpt,127,317875,,,,,,32,,,,,,,True
513.0,image-cpt,128,321025,,,,,,32,,,,,,,True
,image-cpt,129,323158,,,,,,,,,,,,,False
,image-cpt,130,325308,,,,,,,,,,,,,False
,image-cpt,131,328458,,,,,,,,,,,,,False
,image-cpt,132,330608,,,,,,,,,,,,,False
,image-cpt,133,333741,,,,,,,,,,,,,False
,image-cpt,134,335891,,,,,,,,,,,,,False
,image-cpt,135,338041,,,,,,,,,,,,,False
,image-cpt,136,339074,,,,,,,,,,,,,False
,image-cpt,137,341724,,,,,,,,,,,,,False
377.0,image-cpt,138,343874,,,,,,32,,,,,,,True
482.0,image-cpt,139,347007,,,,,,32,,,,,,,True
,image-cpt,140,350157,,,,,,,,,,,,,False
,image-cpt,141,353791,,,,,,,,,,,,,False
,image-cpt,142,356440,,,,,,,,,,,,,False
412.0,image-cpt,143,359089,,,,,,32,,,,,,,True
,image-cpt,144,361223,,,,,,,,,,,,,False
,image-cpt,145,364873,,,,,,,,,,,,,False
,image-cpt,146,368522,,,,,,,,,,,,,False
,image-cpt,147,371172,,,,,,,,,,,,,False
,image-cpt,148,374322,,,,,,,,,,,,,False
,image-cpt,149,376972,,,,,,,,,,,,,False
,image-cpt,150,379622,,,,,,,,,,,,,False
,image-cpt,151,383255,,,,,,,,,,,,,False
,image-cpt,152,385905,,,,,,,,,,,,,False
,image-cpt,153,389038,,,,,,,,,,,,,False
,image-cpt,154,392188,,,,,,,,,,,,,False
,image-cpt,155,395821,,,,,,,,,,,,,False
,image-cpt,156,397971,,,,,,,,,,,,,False
,image-cpt,157,401121,,,,,,,,,,,,,False
388.0,image-cpt,158,404254,,,,,,32,,,,,,,True
,image-cpt,159,407887,,,,,,,,,,,,,False
,image-cpt,160,410537,,,,,,,,,,,,,False
,image-cpt,161,414187,,,,,,,,,,,,,False
,image-cpt,162,417337,,,,,,,,,,,,,False
,image-cpt,163,419986,,,,,,,,,,,,,False
,image-cpt,164,422136,,,,,,,,,,,,,False
,image-cpt,165,424286,,,,,,,,,,,,,False
487.0,image-cpt,166,426936,,,,,,32,,,,,,,True
,image-cpt,167,429086,,,,,,,,,,,,,False
,image-cpt,168,431736,,,,,,,,,,,,,False
,image-cpt,169,435386,,,,,,,,,,,,,False
,image-cpt,170,439035,,,,,,,,,,,,,False
,image-cpt,171,442685,,,,,,,,,,,,,False
472.0,image-cpt,172,445318,,,,,,32,,,,,,,True
,image-cpt,173,448468,,,,,,,,,,,,,False
,image-cpt,174,451102,,,,,,,,,,,,,False
423.0,image-cpt,175,453251,,,,,,32,,,,,,,True
,image-cpt,176,456901,,,,,,,,,,,,,False
415.0,image-cpt,177,460534,,,,,,32,,,,,,,True
510.0,image-cpt,178,462684,,,,,,32,,,,,,,True
,image-cpt,179,465334,,,,,,,,,,,,,False
,image-cpt,180,468984,,,,,,,,,,,,,False
,image-cpt,181,472134,,,,,,,,,,,,,False
,image-cpt,182,474767,,,,,,,,,,,,,False
,image-cpt,183,476917,,,,,,,,,,,,,False
,image-cpt,184,480067,,,,,,,,,,,,,False
386.0,image-cpt,185,483716,,,,,,32,,,,,,,True
384.0,image-cpt,186,486350,,,,,,32,,,,,,,True
390.0,image-cpt,187,488499,,,,,,32,,,,,,,True
,image-cpt,188,492149,,,,,,,,,,,,,False
335.0,image-cpt,189,494299,,,,,,32,,,,,,,True
,image-cpt,190,497949,,,,,,,,,,,,,False
,image-cpt,191,501099,,,,,,,,,,,,,False
,image-cpt,192,504249,,,,,,,,,,,,,False
,image-cpt,193,507898,,,,,,,,,,,,,False
,image-cpt,194,510048,,,,,,,,,,,,,False
436.0,image-cpt,195,513182,,,,,,32,,,,,,,True
406.0,image-cpt,196,516815,,,,,,32,,,,,,,True
,image-cpt,197,519465,,,,,,,,,,,,,False
,image-cpt,198,523114,,,,,,,,,,,,,False
,image-cpt,199,525264,,,,,,,,,,,,,False
,image-cpt,200,527914,,,,,,,,,,,,,False
,image-cpt,201,530564,,,,,,,,,,,,,False
417.0,image-cpt,202,533714,,,,,,32,,,,,,,True
,image-cpt,203,536364,,,,,,,,,,,,,False
,image-cpt,204,539514,,,,,,,,,,,,,False
,image-cpt,205,541647,,,,,,,,,,,,,False
,image-cpt,206,543797,,,,,,,,,,,,,False
447.0,image-cpt,207,547430,,,,,,32,,,,,,,True
,image-cpt,208,550580,,,,,,,,,,,,,False
369.0,image-cpt,209,553213,,,,,,32,,,,,,,True
408.0,image-cpt,210,555363,,,,,,32,,,,,,,True
,image-cpt,211,559013,,,,,,,,,,,,,False
336.0,image-cpt,212,561162,,,,,,32,,,,,,,True
,image-cpt,213,564312,,,,,,,,,,,,,False
380.0,image-cpt,214,567962,,,,,,32,,,,,,,True
363.0,image-cpt,215,570612,,,,,,32,,,,,,,True
337.0,image-cpt,216,573262,,,,,,32,,,,,,,True
359.0,image-cpt,217,576412,,,,,,32,,,,,,,True
,image-cpt,218,579561,,,,,,,,,,,,,False
315.0,image-cpt,219,582695,,,,,,32,,,,,,,True
302.0,image-cpt,220,585344,,,,,,32,,,,,,,True
420.0,image-cpt,221,587994,,,,,,32,,,,,,,True
298.0,image-cpt,222,591144,,,,,,32,,,,,,,True
300.0,image-cpt,223,594277,,,,,,32,,,,,,,True
,image-cpt,224,596427,,,,,,,,,,,,,False
409.0,image-cpt,225,600077,,,,,,32,,,,,,,True
,image-cpt,226,603710,,,,,,,,,,,,,False
,image-cpt,227,606860,,,,,,,,,,,,,False
,image-cpt,228,610010,,,,,,,,,,,,,False
347.0,image-cpt,229,613660,,,,,,32,,,,,,,True
329.0,image-cpt,230,616809,,,,,,32,,,,,,,True
,image-cpt,231,620459,,,,,,,,,,,,,False
,image-cpt,232,623609,,,,,,,,,,,,,False
,image-cpt,233,626742,,,,,,,,,,,,,False
,image-cpt,234,630392,,,,,,,,,,,,,False
,image-cpt,235,634042,,,,,,,,,,,,,False
,image-cpt,236,636192,,,,,,,,,,,,,False
,image-cpt,237,638325,,,,,,,,,,,,,False
,image-cpt,238,640475,,,,,,,,,,,,,False
362.0,image-cpt,239,643125,,,,,,32,,,,,,,True
,image-cpt,240,645275,,,,,,,,,,,,,False
746.0,image-cpt,241,647924,,,,,,32,,,,,,,True
,image-cpt,242,650074,,,,,,,,,,,,,False
,image-cpt,243,652224,,,,,,,,,,,,,False
,image-cpt,244,655874,,,,,,,,,,,,,False
,image-cpt,245,658524,,,,,,,,,,,,,False
409.0,image-cpt,246,660674,,,,,,32,,,,,,,True
,image-cpt,247,663324,,,,,,,,,,,,,False
,image-cpt,248,665474,,,,,,,,,,,,,False
,image-cpt,249,668124,,,,,,,,,,,,,False
,image-cpt,250,670274,,,,,,,,,,,,,False
403.0,image-cpt,251,673407,,,,,,32,,,,,,,True
,image-cpt,252,676557,,,,,,,,,,,,,False
,image-cpt,253,678707,,,,,,,,,,,,,False
,image-cpt,254,681856,,,,,,,,,,,,,False
,image-cpt,255,684506,,,,,,,,,,,,,False
379.0,image-cpt,256,688156,,,,,,32,,,,,,,True
,image-cpt,257,690306,,,,,,,,,,,,,False
451.0,image-cpt,258,692956,,,,,,32,,,,,,,True
,image-cpt,259,696589,,,,,,,,,,,,,False
,image-cpt,260,699739,,,,,,,,,,,,,False
426.0,image-cpt,261,702389,,,,,,32,,,,,,,True
,image-cpt,262,706038,,,,,,,,,,,,,False
,image-cpt,263,708688,,,,,,,,,,,,,False
,image-cpt,264,710821,,,,,,,,,,,,,False
,image-cpt,265,713454,,,,,,,,,,,,,False
,image-cpt,266,716104,,,,,,,,,,,,,False
,image-cpt,267,718238,,,,,,,,,,,,,False
,image-cpt,268,721871,,,,,,,,,,,,,False
406.0,image-cpt,269,724521,,,,,,32,,,,,,,True
,image-cpt,270,727654,,,,,,,,,,,,,False
367.0,image-cpt,271,729804,,,,,,32,,,,,,,True
361.0,image-cpt,272,733437,,,,,,32,,,,,,,True
,image-cpt,273,736587,,,,,,,,,,,,,False
538.0,image-cpt,274,740237,,,,,,32,,,,,,,True
,image-cpt,275,743387,,,,,,,,,,,,,False
,image-cpt,276,747037,,,,,,,,,,,,,False
376.0,image-cpt,277,749186,,,,,,32,,,,,,,True
482.0,image-cpt,278,751336,,,,,,32,,,,,,,True
,image-cpt,279,753986,,,,,,,,,,,,,False
370.0,image-cpt,280,757636,,,,,,32,,,,,,,True
,image-cpt,281,760269,,,,,,,,,,,,,False
344.0,image-cpt,282,762902,,,,,,32,,,,,,,True
,image-cpt,283,765052,,,,,,,,,,,,,False
,image-cpt,284,767685,,,,,,,,,,,,,False
,image-cpt,285,770835,,,,,,,,,,,,,False
,image-cpt,286,774485,,,,,,,,,,,,,False
,image-cpt,287,777635,,,,,,,,,,,,,False
370.0,image-cpt,288,780785,,,,,,32,,,,,,,True
,image-cpt,289,783918,,,,,,,,,,,,,False
,image-cpt,290,786551,,,,,,,,,,,,,False
,image-cpt,291,789701,,,,,,,,,,,,,False
,image-cpt,292,793334,,,,,,,,,,,,,False
,image-cpt,293,795967,,,,,,,,,,,,,False
,image-cpt,294,798117,,,,,,,,,,,,,False
,image-cpt,295,801750,,,,,,,,,,,,,False
447.0,image-cpt,296,805400,,,,,,32,,,,,,,True
,image-cpt,297,807550,,,,,,,,,,,,,False
,image-cpt,298,809700,,,,,,,,,,,,,False
,image-cpt,299,812849,,,,,,,,,,,,,False
,image-cpt,300,815499,,,,,,,,,,,,,False
441.0,image-cpt,301,817649,,,,,,32,,,,,,,True
468.0,image-cpt,302,820299,,,,,,32,,,,,,,True
,image-cpt,303,823449,,,,,,,,,,,,,False
,image-cpt,304,826582,,,,,,,,,,,,,False
383.0,image-cpt,305,830232,,,,,,32,,,,,,,True
,image-cpt,306,832882,,,,,,,,,,,,,False
371.0,image-cpt,307,835532,,,,,,32,,,,,,,True
,image-cpt,308,837682,,,,,,,,,,,,,False
,image-cpt,309,841331,,,,,,,,,,,,,False
,image-cpt,310,844481,,,,,,,,,,,,,False
,image-cpt,311,846614,,,,,,,,,,,,,False
,image-cpt,312,848748,,,,,,,,,,,,,False
,image-cpt,313,851897,,,,,,,,,,,,,False
491.0,image-cpt,314,854031,,,,,,32,,,,,,,True
,image-cpt,315,857680,,,,,,,,,,,,,True
,image-cpt,316,860330,,,,,,,,,,,,,False
,image-cpt,317,863480,,,,,,,,,,,,,False
,image-cpt,318,867130,,,,,,,,,,,,,False
,image-cpt,319,869780,,,,,,,,,,,,,False
,image-cpt,320,871930,,,,,,,,,,,,,False
,image-cpt,321,874580,,,,,,,,,,,,,False
465.0,image-cpt,322,877729,,,,,,32,,,,,,,True
,image-cpt,323,879863,,,,,,,,,,,,,False
,image-cpt,324,883513,,,,,,,,,,,,,False
,image-cpt,325,887162,,,,,,,,,,,,,False
,image-cpt,326,889812,,,,,,,,,,,,,False
,image-cpt,327,892445,,,,,,,,,,,,,False
,image-cpt,328,894579,,,,,,,,,,,,,False
,image-cpt,329,896729,,,,,,,,,,,,,False
364.0,image-cpt,330,899862,,,,,,32,,,,,,,True
,image-cpt,331,903495,,,,,,,,,,,,,False
,image-cpt,332,906645,,,,,,,,,,,,,False
,image-cpt,333,909278,,,,,,,,,,,,,False
423.0,image-cpt,334,912912,,,,,,32,,,,,,,True
,image-cpt,335,915561,,,,,,,,,,,,,False
316.0,image-cpt,336,918211,,,,,,32,,,,,,,True
,image-cpt,337,920861,,,,,,,,,,,,,False
504.0,image-cpt,338,923010,,,,,,32,,,,,,,True
,image-cpt,339,925660,,,,,,,,,,,,,False
,image-cpt,340,927810,,,,,,,,,,,,,False
434.0,image-cpt,341,930460,,,,,,32,,,,,,,True
361.0,image-cpt,342,933093,,,,,,32,,,,,,,True
335.0,image-cpt,343,935243,,,,,,32,,,,,,,True
,image-cpt,344,938393,,,,,,,,,,,,,False
316.0,image-cpt,345,940526,,,,,,32,,,,,,,True
,image-cpt,346,943676,,,,,,,,,,,,,False
,image-cpt,347,946826,,,,,,,,,,,,,False
411.0,image-cpt,348,948976,,,,,,32,,,,,,,True
517.0,image-cpt,349,952626,,,,,,32,,,,,,,True
,image-cpt,350,955276,,,,,,,,,,,,,False
345.0,image-cpt,351,958425,,,,,,32,,,,,,,True
,image-cpt,352,961559,,,,,,,,,,,,,False
,image-cpt,353,965208,,,,,,,,,,,,,False
,image-cpt,354,967342,,,,,,,,,,,,,False
,image-cpt,355,969491,,,,,,,,,,,,,False
433.0,image-cpt,356,973141,,,,,,32,,,,,,,True
384.0,image-cpt,357,976773,,,,,,32,,,,,,,True
383.0,image-cpt,358,979924,,,,,,32,,,,,,,True
,image-cpt,359,983557,,,,,,,,,,,,,False
367.0,image-cpt,360,987191,,,,,,32,,,,,,,True
,image-cpt,361,989340,,,,,,,,,,,,,False
,image-cpt,362,992990,,,,,,,,,,,,,False
,image-cpt,363,996140,,,,,,,,,,,,,False
,image-cpt,364,998290,,,,,,,,,,,,,False
,image-cpt,365,1001940,,,,,,,,,,,,,False
417.0,image-cpt,366,1004590,,,,,,32,,,,,,,True
,image-cpt,367,1007739,,,,,,,,,,,,,False
,image-cpt,368,1010389,,,,,,,,,,,,,False
,image-cpt,369,1014023,,,,,,,,,,,,,False
,image-cpt,370,1017672,,,,,,,,,,,,,False
,image-cpt,371,1021322,,,,,,,,,,,,,False
395.0,image-cpt,372,1023472,,,,,,32,,,,,,,True
,image-cpt,373,1026605,,,,,,,,,,,,,False
,image-cpt,374,1028755,,,,,,,,,,,,,False
370.0,image-cpt,375,1031405,,,,,,32,,,,,,,True
,image-cpt,376,1035038,,,,,,,,,,,,,False
407.0,image-cpt,377,1038688,,,,,,32,,,,,,,True
453.0,image-cpt,378,1041338,,,,,,32,,,,,,,True
,image-cpt,379,1044471,,,,,,,,,,,,,False
414.0,image-cpt,380,1047121,,,,,,32,,,,,,,True
,image-cpt,381,1050771,,,,,,,,,,,,,False
,image-cpt,382,1052921,,,,,,,,,,,,,False
476.0,image-cpt,383,1055570,,,,,,32,,,,,,,False
,image-cpt,384,1058720,,,,,,,,,,,,,False
,image-cpt,385,1062370,,,,,,,,,,,,,False
,image-cpt,386,1066020,,,,,,,,,,,,,False
417.0,image-cpt,387,1068170,,,,,,32,,,,,,,True
,image-cpt,388,1071303,,,,,,,,,,,,,False
,image-cpt,389,1073453,,,,,,,,,,,,,False
,image-cpt,390,1075603,,,,,,,,,,,,,False
466.0,image-cpt,391,1079252,,,,,,32,,,,,,,True
448.0,image-cpt,392,1082402,,,,,,32,,,,,,,True
355.0,image-cpt,393,1085052,,,,,,32,,,,,,,True
,image-cpt,394,1088685,,,,,,,,,,,,,False
391.0,image-cpt,395,1091835,,,,,,32,,,,,,,True
425.0,image-cpt,396,1094985,,,,,,32,,,,,,,True
,image-cpt,397,1098119,,,,,,,,,,,,,False
,image-cpt,398,1101768,,,,,,,,,,,,,False
414.0,image-cpt,399,1103901,,,,,,32,,,,,,,True
,image-cpt,400,1107535,,,,,,,,,,,,,False
,image-cpt,401,1111184,,,,,,,,,,,,,False
,image-cpt,402,1114318,,,,,,,,,,,,,False
,image-cpt,403,1117467,,,,,,,,,,,,,False
474.0,image-cpt,404,1119617,,,,,,32,,,,,,,True
,image-cpt,405,1123267,,,,,,,,,,,,,False
418.0,image-cpt,406,1125417,,,,,,32,,,,,,,True
,image-cpt,407,1129067,,,,,,,,,,,,,False
427.0,image-cpt,408,1132717,,,,,,32,,,,,,,True
585.0,image-cpt,409,1134850,,,,,,32,,,,,,,True
,image-cpt,410,1137500,,,,,,,,,,,,,False
,image-cpt,411,1140650,,,,,,,,,,,,,False
,image-cpt,412,1144299,,,,,,,,,,,,,False
,image-cpt,413,1146449,,,,,,,,,,,,,False
,image-cpt,414,1150099,,,,,,,,,,,,,False
435.0,image-cpt,415,1153749,,,,,,32,,,,,,,True
,image-cpt,416,1156898,,,,,,,,,,,,,False
,image-cpt,417,1159048,,,,,,,,,,,,,False
,image-cpt,418,1162198,,,,,,,,,,,,,False
,image-cpt,419,1164848,,,,,,,,,,,,,False
,image-cpt,420,1167498,,,,,,,,,,,,,False
,image-cpt,421,1170148,,,,,,,,,,,,,False
23354.0,instructions,422,1193502,,,,,,,,,,,,,
1647.0,bRMS,423,1195543,,,images/rms/f42887_e_289_1.jpg,control_reversed,1.0,Q,400.0,True,True,0.0,63.0,63.0,
639.0,bRMS,424,1196976,,,images/rms/f42887_e_005.jpg,control_main,0.0,P,400.0,True,True,0.0,63.0,63.0,
531.0,bRMS,425,1198312,,,images/rms/f42887_e_005_1.jpg,control_reversed,1.0,Q,400.0,True,True,0.0,63.0,63.0,
390.0,bRMS,426,1199496,,,images/rms/f42887_e_080.jpg,control_main,0.0,P,400.0,True,True,0.0,63.0,63.0,
387.5999994277954,bRMS,427,1200671,,,images/rms/f42887_e_297_1.jpg,control_reversed,1.0,Q,400.0,True,True,0.0,63.0,63.0,
544.5,bRMS,428,1202024,,,images/rms/f42887_e_053_1.jpg,control_reversed,0.0,P,400.0,True,True,0.0,63.0,63.0,
392.0999994277954,bRMS,429,1203223,,,images/rms/f42887_e_001.jpg,control_main,1.0,Q,400.0,True,True,0.0,63.0,63.0,
567.6999998092651,bRMS,430,1204607,,,images/rms/f42887_e_296_1.jpg,control_reversed,1.0,Q,400.0,True,True,0.0,63.0,63.0,
492.0,bRMS,431,1205911,,,images/rms/f42887_e_296.jpg,control_main,0.0,P,400.0,True,True,0.0,63.0,63.0,
531.4000005722046,bRMS,432,1207239,,,images/rms/f42887_e_072_1.jpg,control_reversed,0.0,P,400.0,True,True,0.0,63.0,63.0,
396.5,bRMS,433,1208439,,,images/rms/f42887_e_080_1.jpg,control_reversed,1.0,Q,400.0,True,True,0.0,63.0,63.0,
399.0,bRMS,434,1209639,,,images/rms/f42887_e_140.jpg,control_main,1.0,P,400.0,True,False,0.0,63.0,63.0,
459.0,bRMS,435,1210903,,,images/rms/f42887_e_245.jpg,control_main,1.0,Q,400.0,True,True,0.0,63.0,63.0,
601.8000001907349,bRMS,436,1212311,,,images/rms/f42887_e_058.jpg,control_main,0.0,P,400.0,True,True,0.0,63.0,63.0,
464.5,bRMS,437,1213576,,,images/rms/f42887_e_180.jpg,control_main,1.0,Q,400.0,True,True,0.0,63.0,63.0,
608.3000001907349,bRMS,438,1214979,,,images/rms/f42887_e_297.jpg,control_main,0.0,P,400.0,True,True,0.0,63.0,63.0,
1258.4000005722046,bRMS,439,1217024,,,images/rms/f42887_e_103_1.jpg,control_reversed,0.0,P,400.0,True,True,0.0,63.0,63.0,
561.6000003814697,bRMS,440,1218392,,,images/rms/f42887_e_202_1.jpg,control_reversed,0.0,P,400.0,True,True,0.0,63.0,63.0,
499.0,bRMS,441,1219688,,,images/rms/f42887_e_058_1.jpg,control_reversed,1.0,Q,400.0,True,True,0.0,63.0,63.0,
454.0999994277954,bRMS,442,1220959,,,images/rms/f42887_e_298_1.jpg,control_reversed,1.0,Q,400.0,True,True,0.0,63.0,63.0,
600.0,bRMS,443,1222360,,,images/rms/f42887_e_015.jpg,control_main,1.0,Q,400.0,True,True,0.0,63.0,63.0,
571.9000005722046,bRMS,444,1223743,,,images/rms/f42887_e_202.jpg,control_main,0.0,P,400.0,True,True,0.0,63.0,63.0,
618.1999998092651,bRMS,445,1225160,,,images/rms/f42887_e_161.jpg,control_main,1.0,Q,400.0,True,True,0.0,63.0,63.0,
832.1000003814697,bRMS,446,1226792,,,images/rms/f42887_e_278.jpg,control_main,1.0,Q,400.0,True,True,0.0,63.0,63.0,
993.5,bRMS,447,1228577,,,images/rms/f42887_e_258_1.jpg,control_reversed,0.0,P,400.0,True,True,0.0,63.0,63.0,
621.0,bRMS,448,1229992,,,images/rms/f42887_e_064_1.jpg,control_reversed,0.0,P,400.0,True,True,0.0,63.0,63.0,
1250.8000001907349,bRMS,449,1232039,,,images/rms/f42887_e_156_1.jpg,control_reversed,0.0,P,400.0,True,True,0.0,63.0,63.0,
618.1000003814697,bRMS,450,1233456,,,images/rms/f42887_e_072.jpg,control_main,1.0,Q,400.0,True,True,0.0,63.0,63.0,
1341.0999994277954,bRMS,451,1235607,,,images/rms/f42887_e_015_1.jpg,control_reversed,0.0,P,400.0,True,True,0.0,63.0,63.0,
656.0,bRMS,452,1237060,,,images/rms/f42887_e_127_1.jpg,control_reversed,1.0,Q,400.0,True,True,0.0,63.0,63.0,
752.1999998092651,bRMS,453,1238610,,,images/rms/f42887_e_161_1.jpg,control_reversed,1.0,Q,400.0,True,True,0.0,63.0,63.0,
681.6999998092651,bRMS,454,1240087,,,images/rms/f42887_e_025_1.jpg,control_reversed,0.0,P,400.0,True,True,0.0,63.0,63.0,
1061.0999994277954,bRMS,455,1241960,,,images/rms/f42887_e_298.jpg,control_main,0.0,P,400.0,True,True,0.0,63.0,63.0,
543.9000005722046,bRMS,456,1243304,,,images/rms/f42887_e_025.jpg,control_main,1.0,Q,400.0,True,True,0.0,63.0,63.0,
699.0999994277954,bRMS,457,1244808,,,images/rms/f42887_e_140_1.jpg,control_reversed,1.0,Q,400.0,True,True,0.0,63.0,63.0,
481.19999980926514,bRMS,458,1246088,,,images/rms/f42887_e_252.jpg,control_main,0.0,P,400.0,True,True,0.0,63.0,63.0,
603.6999998092651,bRMS,459,1247493,,,images/rms/f42887_e_098_1.jpg,control_reversed,1.0,Q,400.0,True,True,0.0,63.0,63.0,
448.8999996185303,bRMS,460,1248743,,,images/rms/f42887_e_241_1.jpg,control_reversed,0.0,P,400.0,True,True,0.0,63.0,63.0,
609.1999998092651,bRMS,461,1250152,,,images/rms/f42887_e_293_1.jpg,control_reversed,0.0,P,400.0,True,True,0.0,63.0,63.0,
456.80000019073486,bRMS,462,1251410,,,images/rms/f42887_e_259.jpg,control_main,0.0,P,400.0,True,True,0.0,63.0,63.0,
622.1999998092651,bRMS,463,1252823,,,images/rms/f42887_e_028.jpg,control_main,0.0,P,400.0,True,True,0.0,63.0,63.0,
583.9000005722046,bRMS,464,1254210,,,images/rms/f42887_e_245_1.jpg,control_reversed,1.0,Q,400.0,True,True,0.0,63.0,63.0,
537.0,bRMS,465,1255560,,,images/rms/f42887_e_180_1.jpg,control_reversed,1.0,Q,400.0,True,True,0.0,63.0,63.0,
414.69999980926514,bRMS,466,1256791,,,images/rms/f42887_e_127.jpg,control_main,0.0,P,400.0,True,True,0.0,63.0,63.0,
607.0,bRMS,467,1258199,,,images/rms/f42887_e_064.jpg,control_main,0.0,P,400.0,True,True,0.0,63.0,63.0,
441.20000076293945,bRMS,468,1259448,,,images/rms/f42887_e_295.jpg,control_main,1.0,Q,400.0,True,True,0.0,63.0,63.0,
503.5,bRMS,469,1260760,,,images/rms/f42887_e_053.jpg,control_main,0.0,P,400.0,True,True,0.0,63.0,63.0,
415.0999994277954,bRMS,470,1261976,,,images/rms/f42887_e_156.jpg,control_main,1.0,Q,400.0,True,True,0.0,63.0,63.0,
542.6999998092651,bRMS,471,1263320,,,images/rms/f42887_e_259_1.jpg,control_reversed,1.0,Q,400.0,True,True,0.0,63.0,63.0,
389.8999996185303,bRMS,472,1264519,,,images/rms/f42887_e_098.jpg,control_main,1.0,Q,400.0,True,True,0.0,63.0,63.0,
406.1000003814697,bRMS,473,1265736,,,images/rms/f42887_e_103.jpg,control_main,1.0,Q,400.0,True,True,0.0,63.0,63.0,
343.0999994277954,bRMS,474,1266888,,,images/rms/f42887_e_278_1.jpg,control_reversed,1.0,Q,400.0,True,True,0.0,63.0,63.0,
342.5,bRMS,475,1268040,,,images/rms/f42887_e_121_1.jpg,control_reversed,1.0,Q,400.0,True,True,0.0,63.0,63.0,
326.19999980926514,bRMS,476,1269159,,,images/rms/f42887_e_001_1.jpg,control_reversed,1.0,Q,400.0,True,True,0.0,63.0,63.0,
511.8999996185303,bRMS,477,1270472,,,images/rms/f42887_e_295_1.jpg,control_reversed,0.0,P,400.0,True,True,0.0,63.0,63.0,
384.8999996185303,bRMS,478,1271656,,,images/rms/f42887_e_028_1.jpg,control_reversed,1.0,Q,400.0,True,True,0.0,63.0,63.0,
499.30000019073486,bRMS,479,1272959,,,images/rms/f42887_e_258.jpg,control_main,1.0,Q,400.0,True,True,0.0,63.0,63.0,
358.9000005722046,bRMS,480,1274120,,,images/rms/f42887_e_121.jpg,control_main,0.0,Q,400.0,True,False,0.0,63.0,63.0,
796.8000001907349,bRMS,481,1275720,,,images/rms/f42887_e_293.jpg,control_main,1.0,Q,400.0,True,True,0.0,63.0,63.0,
479.5,bRMS,482,1277000,,,images/rms/f42887_e_289.jpg,control_main,1.0,Q,400.0,True,True,0.0,63.0,63.0,
457.69999980926514,bRMS,483,1278259,,,images/rms/f42887_e_241.jpg,control_main,0.0,P,400.0,True,True,0.0,63.0,63.0,
423.69999980926514,bRMS,484,1279472,,,images/rms/f42887_e_252_1.jpg,control_reversed,1.0,Q,400.0,True,True,0.0,63.0,63.0,
5016.0,instructions,485,1284902,,,,,,,,,,,,,
14647.0,survey-likert,486,1299551,"{""Q0"":4,""Q1"":3,""Q2"":1}",ASRS_2_3,,,,,,,,,,,
10463.0,survey-likert,487,1310015,"{""Q0"":2,""Q1"":3,""Q2"":4}",ASRS_1_0,,,,,,,,,,,
21798.0,survey-likert,488,1331815,"{""Q0"":3,""Q1"":3,""Q2"":1}",ASRS_1_3,,,,,,,,,,,
12390.0,survey-likert,489,1344206,"{""Q0"":4,""Q1"":1,""Q2"":2}",ASRS_2_9,,,,,,,,,,,
14807.0,survey-likert,490,1359015,"{""Q0"":3,""Q1"":3,""Q2"":3}",ASRS_2_0,,,,,,,,,,,
11623.0,survey-likert,491,1370639,"{""Q0"":2,""Q1"":2,""Q2"":4}",ASRS_2_6,,,,,,,,,,,
5679.0,survey-likert,492,1376318,"{""Q0"":4}",LAST_1,,,,,,,,,,,
3454.0,survey-multi-choice,493,1379775,"{""Q0"":""לא""}",,,,,,,,,,,,
1311.0,survey-text,494,1381087,"{""Q0"":""""}",,,,,,,,,,,,
2815.0,survey-likert,495,1383902,"{""Q0"":4}",LAST_4,,,,,,,,,,,
2638.0,survey-multi-choice,496,1386543,"{""Q0"":""לא""}",,,,,,,,,,,,
823.0,survey-text,497,1387367,"{""Q0"":""""}",,,,,,,,,,,,
9423.0,survey-likert,498,1396791,"{""Q0"":4}",DRIVE_1,,,,,,,,,,,
14415.0,survey-text,499,1411206,"{""Q0"":""0""}",,,,,,,,,,,,
4968.0,survey-text,500,1416174,"{""Q0"":""0""}",,,,,,,,,,,,
1328.0,instructions,501,1417502,,,,,,,,,,,,,
