rt,trial_type,trial_index,time_elapsed,responses,name,key_press,is_stimulus,stimulus,stimulus_block,stimulus_side,time_post_trial,is_fullscreen,correct,trial_began,block,sub_block
573928.0,instructions,0,573928,,,,,,,,,,,,,
7453.0,survey-multi-choice,1,581383,"{""Q0"":""אישה"",""Q1"":""ימין"",""Q2"":""עברית""}",,,,,,,,,,,,
5071.0,survey-text,2,586455,"{""Q0"":""22"",""Q1"":""23""}",,,,,,,,,,,,
3110.0,survey-multi-choice,3,589567,"{""Q0"":""לא""}",,,,,,,,,,,,
7119.0,survey-likert,4,596687,"{""Q0"":2}",attention_2,,,,,,,,,,,
12215.0,instructions,5,608903,,,,,,,,,,,,,
,image-cpt,6,611029,,,,False,,,,,,,,,
,image-cpt,7,614164,,,,False,,,,,,,,,
1043.0,image-cpt,8,616813,,,32,True,,,,,,,,,
,image-cpt,9,619947,,,,False,,,,,,,,,
,image-cpt,10,622095,,,,False,,,,,,,,,
439.0,image-cpt,11,625728,,,32,True,,,,,,,,,
,image-cpt,12,629363,,,,False,,,,,,,,,
467.0,image-cpt,13,631995,,,32,True,,,,,,,,,
587.0,image-cpt,14,635644,,,32,True,,,,,,,,,
730.0,image-cpt,15,638762,,,32,False,,,,,,,,,
,image-cpt,16,640910,,,,False,,,,,,,,,
,image-cpt,17,643544,,,,False,,,,,,,,,
,image-cpt,18,644577,,,,False,,,,,,,,,
,image-cpt,19,646727,,,,False,,,,,,,,,
,image-cpt,20,649361,,,,False,,,,,,,,,
3878.0,instructions,21,653239,,,,,,,,,,,,,
,image-cpt,22,655890,,,,False,,,,,,,,,
,image-cpt,23,658540,,,,False,,,,,,,,,
,image-cpt,24,661191,,,,False,,,,,,,,,
,image-cpt,25,664324,,,,False,,,,,,,,,
419.0,image-cpt,26,666474,,,32,True,,,,,,,,,
444.0,image-cpt,27,669607,,,32,True,,,,,,,,,
,image-cpt,28,672257,,,,False,,,,,,,,,
,image-cpt,29,674407,,,,False,,,,,,,,,
,image-cpt,30,677557,,,,False,,,,,,,,,
,image-cpt,31,680207,,,,False,,,,,,,,,
808.0,image-cpt,32,683855,,,32,True,,,,,,,,,
,image-cpt,33,686006,,,,False,,,,,,,,,
431.0,image-cpt,34,688156,,,32,True,,,,,,,,,
554.0,image-cpt,35,691306,,,32,True,,,,,,,,,
397.0,image-cpt,36,694439,,,32,True,,,,,,,,,
,image-cpt,37,698083,,,,False,,,,,,,,,
388.0,image-cpt,38,701239,,,32,False,,,,,,,,,
,image-cpt,39,704389,,,,False,,,,,,,,,
,image-cpt,40,706539,,,,False,,,,,,,,,
651.0,image-cpt,41,708672,,,32,True,,,,,,,,,
,image-cpt,42,712322,,,,False,,,,,,,,,
692.0,image-cpt,43,715971,,,32,True,,,,,,,,,
,image-cpt,44,718623,,,,False,,,,,,,,,
,image-cpt,45,721271,,,,False,,,,,,,,,
592.0,image-cpt,46,723404,,,32,True,,,,,,,,,
,image-cpt,47,725554,,,,False,,,,,,,,,
,image-cpt,48,728197,,,,False,,,,,,,,,
513.0,image-cpt,49,731337,,,32,True,,,,,,,,,
,image-cpt,50,734987,,,,False,,,,,,,,,
,image-cpt,51,737137,,,,False,,,,,,,,,
,image-cpt,52,739287,,,,False,,,,,,,,,
,image-cpt,53,742920,,,,False,,,,,,,,,
671.0,image-cpt,54,746570,,,32,True,,,,,,,,,
,image-cpt,55,748703,,,,True,,,,,,,,,
,image-cpt,56,752353,,,,False,,,,,,,,,
,image-cpt,57,755003,,,,False,,,,,,,,,
,image-cpt,58,757136,,,,False,,,,,,,,,
535.0,image-cpt,59,759269,,,32,True,,,,,,,,,
657.0,image-cpt,60,761419,,,32,True,,,,,,,,,
683.0,image-cpt,61,764052,,,32,True,,,,,,,,,
,image-cpt,62,766685,,,,False,,,,,,,,,
,image-cpt,63,769335,,,,False,,,,,,,,,
655.0,image-cpt,64,771985,,,32,True,,,,,,,,,
,image-cpt,65,775119,,,,False,,,,,,,,,
,image-cpt,66,778767,,,,False,,,,,,,,,
,image-cpt,67,781901,,,,False,,,,,,,,,
344.0,image-cpt,68,785537,,,32,True,,,,,,,,,
,image-cpt,69,787684,,,,False,,,,,,,,,
626.0,image-cpt,70,789834,,,32,True,,,,,,,,,
,image-cpt,71,792967,,,,False,,,,,,,,,
558.0,image-cpt,72,795617,,,32,True,,,,,,,,,
,image-cpt,73,797767,,,,False,,,,,,,,,
,image-cpt,74,800917,,,,False,,,,,,,,,
,image-cpt,75,804550,,,,False,,,,,,,,,
545.0,image-cpt,76,808190,,,32,True,,,,,,,,,
600.0,image-cpt,77,811333,,,32,True,,,,,,,,,
,image-cpt,78,813983,,,,False,,,,,,,,,
312.0,image-cpt,79,817616,,,32,True,,,,,,,,,
,image-cpt,80,820249,,,,False,,,,,,,,,
,image-cpt,81,822399,,,,False,,,,,,,,,
1016.0,image-cpt,82,824548,,,32,True,,,,,,,,,
,image-cpt,83,828181,,,,False,,,,,,,,,
,image-cpt,84,830332,,,,False,,,,,,,,,
,image-cpt,85,833475,,,,False,,,,,,,,,
,image-cpt,86,835615,,,,False,,,,,,,,,
1079.0,image-cpt,87,837765,,,32,True,,,,,,,,,
,image-cpt,88,840915,,,,False,,,,,,,,,
,image-cpt,89,844048,,,,False,,,,,,,,,
,image-cpt,90,846699,,,,False,,,,,,,,,
1051.0,image-cpt,91,849331,,,32,True,,,,,,,,,
,image-cpt,92,852481,,,,False,,,,,,,,,
,image-cpt,93,855144,,,,False,,,,,,,,,
,image-cpt,94,857797,,,,False,,,,,,,,,
,image-cpt,95,860947,,,,False,,,,,,,,,
,image-cpt,96,863097,,,,False,,,,,,,,,
,image-cpt,97,865230,,,,False,,,,,,,,,
393.0,image-cpt,98,867383,,,32,True,,,,,,,,,
,image-cpt,99,869530,,,,False,,,,,,,,,
,image-cpt,100,872663,,,,False,,,,,,,,,
640.0,image-cpt,101,874813,,,32,True,,,,,,,,,
,image-cpt,102,876963,,,,False,,,,,,,,,
,image-cpt,103,880613,,,,False,,,,,,,,,
,image-cpt,104,882763,,,,False,,,,,,,,,
,image-cpt,105,885896,,,,False,,,,,,,,,
,image-cpt,106,889546,,,,False,,,,,,,,,
509.0,image-cpt,107,893179,,,32,True,,,,,,,,,
,image-cpt,108,896812,,,,False,,,,,,,,,
,image-cpt,109,900462,,,,False,,,,,,,,,
,image-cpt,110,902612,,,,False,,,,,,,,,
,image-cpt,111,905245,,,,False,,,,,,,,,
618.0,image-cpt,112,908877,,,32,True,,,,,,,,,
730.0,image-cpt,113,912511,,,32,True,,,,,,,,,
,image-cpt,114,915661,,,,False,,,,,,,,,
,image-cpt,115,917811,,,,False,,,,,,,,,
,image-cpt,116,919930,,,,False,,,,,,,,,
,image-cpt,117,923079,,,,False,,,,,,,,,
,image-cpt,118,925227,,,,False,,,,,,,,,
,image-cpt,119,927860,,,,False,,,,,,,,,
,image-cpt,120,930510,,,,False,,,,,,,,,
,image-cpt,121,933646,,,,False,,,,,,,,,
504.0,image-cpt,122,937292,,,32,True,,,,,,,,,
650.0,image-cpt,123,939927,,,32,True,,,,,,,,,
666.0,image-cpt,124,943070,,,32,True,,,,,,,,,
,image-cpt,125,946720,,,,False,,,,,,,,,
,image-cpt,126,948870,,,,False,,,,,,,,,
,image-cpt,127,952019,,,,False,,,,,,,,,
,image-cpt,128,955669,,,,False,,,,,,,,,
,image-cpt,129,957819,,,,False,,,,,,,,,
,image-cpt,130,961469,,,,False,,,,,,,,,
675.0,image-cpt,131,964119,,,32,True,,,,,,,,,
729.0,image-cpt,132,966735,,,32,True,,,,,,,,,
,image-cpt,133,970382,,,,False,,,,,,,,,
,image-cpt,134,972535,,,,False,,,,,,,,,
,image-cpt,135,975168,,,,False,,,,,,,,,
784.0,image-cpt,136,977801,,,32,True,,,,,,,,,
726.0,image-cpt,137,981451,,,32,True,,,,,,,,,
837.0,image-cpt,138,985101,,,32,True,,,,,,,,,
,image-cpt,139,987251,,,,False,,,,,,,,,
,image-cpt,140,989401,,,,False,,,,,,,,,
,image-cpt,141,991551,,,,False,,,,,,,,,
,image-cpt,142,994701,,,,False,,,,,,,,,
,image-cpt,143,998337,,,,False,,,,,,,,,
494.0,image-cpt,144,1000484,,,32,True,,,,,,,,,
723.0,image-cpt,145,1003140,,,32,True,,,,,,,,,
,image-cpt,146,1006789,,,,False,,,,,,,,,
737.0,image-cpt,147,1009939,,,32,True,,,,,,,,,
,image-cpt,148,1012588,,,,False,,,,,,,,,
,image-cpt,149,1016223,,,,False,,,,,,,,,
936.0,image-cpt,150,1018372,,,32,True,,,,,,,,,
962.0,image-cpt,151,1021022,,,32,True,,,,,,,,,
,image-cpt,152,1023655,,,,False,,,,,,,,,
,image-cpt,153,1026805,,,,False,,,,,,,,,
,image-cpt,154,1029945,,,,False,,,,,,,,,
702.0,image-cpt,155,1033588,,,32,True,,,,,,,,,
,image-cpt,156,1037238,,,,False,,,,,,,,,
401.0,image-cpt,157,1040871,,,32,True,,,,,,,,,
511.0,image-cpt,158,1044021,,,32,True,,,,,,,,,
,image-cpt,159,1047654,,,,False,,,,,,,,,
,image-cpt,160,1050804,,,,False,,,,,,,,,
,image-cpt,161,1054437,,,,False,,,,,,,,,
,image-cpt,162,1057087,,,,False,,,,,,,,,
696.0,image-cpt,163,1059224,,,32,True,,,,,,,,,
,image-cpt,164,1062870,,,,False,,,,,,,,,
,image-cpt,165,1066020,,,,False,,,,,,,,,
,image-cpt,166,1069170,,,,False,,,,,,,,,
,image-cpt,167,1071303,,,,False,,,,,,,,,
720.0,image-cpt,168,1073452,,,32,True,,,,,,,,,
,image-cpt,169,1076102,,,,False,,,,,,,,,
,image-cpt,170,1079251,,,,False,,,,,,,,,
691.0,image-cpt,171,1082402,,,32,True,,,,,,,,,
772.0,image-cpt,172,1086052,,,32,True,,,,,,,,,
723.0,image-cpt,173,1089688,,,32,True,,,,,,,,,
927.0,image-cpt,174,1091819,,,32,True,,,,,,,,,
,image-cpt,175,1094469,,,,False,,,,,,,,,
,image-cpt,176,1098118,,,,False,,,,,,,,,
,image-cpt,177,1101751,,,,False,,,,,,,,,
,image-cpt,178,1104401,,,,False,,,,,,,,,
,image-cpt,179,1108051,,,,False,,,,,,,,,
,image-cpt,180,1111184,,,,False,,,,,,,,,
,image-cpt,181,1113334,,,,False,,,,,,,,,
,image-cpt,182,1115983,,,,False,,,,,,,,,
,image-cpt,183,1119617,,,,False,,,,,,,,,
,image-cpt,184,1122250,,,,False,,,,,,,,,
,image-cpt,185,1125383,,,,False,,,,,,,,,
,image-cpt,186,1128533,,,,False,,,,,,,,,
,image-cpt,187,1130683,,,,False,,,,,,,,,
683.0,image-cpt,188,1133333,,,32,True,,,,,,,,,
,image-cpt,189,1136966,,,,False,,,,,,,,,
,image-cpt,190,1139599,,,,False,,,,,,,,,
,image-cpt,191,1142749,,,,False,,,,,,,,,
,image-cpt,192,1145882,,,,False,,,,,,,,,
,image-cpt,193,1149550,,,,False,,,,,,,,,
616.0,image-cpt,194,1152682,,,32,True,,,,,,,,,
,image-cpt,195,1154815,,,,False,,,,,,,,,
,image-cpt,196,1156948,,,,False,,,,,,,,,
1090.0,image-cpt,197,1159581,,,32,True,,,,,,,,,
,image-cpt,198,1162215,,,,False,,,,,,,,,
,image-cpt,199,1165864,,,,False,,,,,,,,,
766.0,image-cpt,200,1169514,,,32,True,,,,,,,,,
,image-cpt,201,1172164,,,,False,,,,,,,,,
723.0,image-cpt,202,1175800,,,32,True,,,,,,,,,
703.0,image-cpt,203,1179447,,,32,True,,,,,,,,,
688.0,image-cpt,204,1181596,,,32,True,,,,,,,,,
,image-cpt,205,1183735,,,,False,,,,,,,,,
720.0,image-cpt,206,1186380,,,32,True,,,,,,,,,
,image-cpt,207,1187397,,,,False,,,,,,,,,
849.0,image-cpt,208,1191030,,,32,True,,,,,,,,,
672.0,image-cpt,209,1194663,,,32,True,,,,,,,,,
,image-cpt,210,1196813,,,,False,,,,,,,,,
,image-cpt,211,1200463,,,,False,,,,,,,,,
,image-cpt,212,1203112,,,,False,,,,,,,,,
,image-cpt,213,1206262,,,,False,,,,,,,,,
,image-cpt,214,1209411,,,,False,,,,,,,,,
,image-cpt,215,1211562,,,,False,,,,,,,,,
813.0,image-cpt,216,1215211,,,32,True,,,,,,,,,
,image-cpt,217,1218362,,,,False,,,,,,,,,
,image-cpt,218,1221495,,,,False,,,,,,,,,
,image-cpt,219,1224145,,,,False,,,,,,,,,
,image-cpt,220,1226278,,,,False,,,,,,,,,
,image-cpt,221,1229911,,,,False,,,,,,,,,
,image-cpt,222,1232061,,,,False,,,,,,,,,
,image-cpt,223,1235211,,,,False,,,,,,,,,
,image-cpt,224,1238846,,,,False,,,,,,,,,
,image-cpt,225,1239877,,,,False,,,,,,,,,
961.0,image-cpt,226,1242010,,,32,True,,,,,,,,,
,image-cpt,227,1245142,,,,False,,,,,,,,,
577.0,image-cpt,228,1248777,,,32,True,,,,,,,,,
,image-cpt,229,1250910,,,,False,,,,,,,,,
,image-cpt,230,1253060,,,,False,,,,,,,,,
,image-cpt,231,1255710,,,,False,,,,,,,,,
,image-cpt,232,1257843,,,,False,,,,,,,,,
,image-cpt,233,1261494,,,,False,,,,,,,,,
,image-cpt,234,1263643,,,,True,,,,,,,,,
955.0,image-cpt,235,1266792,,,32,True,,,,,,,,,
701.0,image-cpt,236,1269925,,,32,True,,,,,,,,,
,image-cpt,237,1272075,,,,False,,,,,,,,,
,image-cpt,238,1274725,,,,False,,,,,,,,,
,image-cpt,239,1277374,,,,False,,,,,,,,,
,image-cpt,240,1281008,,,,False,,,,,,,,,
758.0,image-cpt,241,1283658,,,32,True,,,,,,,,,
,image-cpt,242,1287308,,,,False,,,,,,,,,
683.0,image-cpt,243,1289941,,,32,True,,,,,,,,,
,image-cpt,244,1292568,,,,False,,,,,,,,,
,image-cpt,245,1295207,,,,False,,,,,,,,,
,image-cpt,246,1298855,,,,False,,,,,,,,,
,image-cpt,247,1301507,,,,False,,,,,,,,,
,image-cpt,248,1304658,,,,False,,,,,,,,,
757.0,image-cpt,249,1307807,,,32,True,,,,,,,,,
,image-cpt,250,1310957,,,,False,,,,,,,,,
617.0,image-cpt,251,1314591,,,32,True,,,,,,,,,
,image-cpt,252,1316724,,,,False,,,,,,,,,
579.0,image-cpt,253,1319874,,,32,True,,,,,,,,,
,image-cpt,254,1323007,,,,False,,,,,,,,,
,image-cpt,255,1325640,,,,False,,,,,,,,,
719.0,image-cpt,256,1328273,,,32,True,,,,,,,,,
1254.0,image-cpt,257,1331906,,,32,True,,,,,,,,,
,image-cpt,258,1334553,,,,False,,,,,,,,,
,image-cpt,259,1336689,,,,False,,,,,,,,,
,image-cpt,260,1339838,,,,False,,,,,,,,,
,image-cpt,261,1342472,,,,False,,,,,,,,,
,image-cpt,262,1345622,,,,False,,,,,,,,,
,image-cpt,263,1348756,,,,False,,,,,,,,,
,image-cpt,264,1351905,,,,False,,,,,,,,,
,image-cpt,265,1354039,,,,False,,,,,,,,,
,image-cpt,266,1357188,,,,False,,,,,,,,,
,image-cpt,267,1359343,,,,False,,,,,,,,,
,image-cpt,268,1361488,,,,False,,,,,,,,,
759.0,image-cpt,269,1364638,,,32,True,,,,,,,,,
1113.0,image-cpt,270,1367780,,,32,True,,,,,,,,,
,image-cpt,271,1371420,,,,False,,,,,,,,,
,image-cpt,272,1373570,,,,False,,,,,,,,,
,image-cpt,273,1376702,,,,False,,,,,,,,,
,image-cpt,274,1378854,,,,False,,,,,,,,,
,image-cpt,275,1382502,,,,False,,,,,,,,,
,image-cpt,276,1385136,,,,False,,,,,,,,,
646.0,image-cpt,277,1387270,,,32,True,,,,,,,,,
,image-cpt,278,1390403,,,,False,,,,,,,,,
,image-cpt,279,1393053,,,,False,,,,,,,,,
,image-cpt,280,1396203,,,,False,,,,,,,,,
1036.0,image-cpt,281,1399342,,,32,True,,,,,,,,,
873.0,image-cpt,282,1402486,,,32,True,,,,,,,,,
,image-cpt,283,1405635,,,,False,,,,,,,,,
,image-cpt,284,1407786,,,,False,,,,,,,,,
,image-cpt,285,1411435,,,,False,,,,,,,,,
,image-cpt,286,1415085,,,,False,,,,,,,,,
858.0,image-cpt,287,1417235,,,32,True,,,,,,,,,
,image-cpt,288,1420884,,,,False,,,,,,,,,
,image-cpt,289,1424518,,,,False,,,,,,,,,
,image-cpt,290,1427151,,,,False,,,,,,,,,
,image-cpt,291,1430300,,,,False,,,,,,,,,
,image-cpt,292,1432950,,,,False,,,,,,,,,
,image-cpt,293,1436101,,,,False,,,,,,,,,
546.0,image-cpt,294,1439250,,,32,True,,,,,,,,,
,image-cpt,295,1441900,,,,False,,,,,,,,,
,image-cpt,296,1444550,,,,False,,,,,,,,,
,image-cpt,297,1447700,,,,False,,,,,,,,,
,image-cpt,298,1450350,,,,False,,,,,,,,,
,image-cpt,299,1453500,,,,False,,,,,,,,,
,image-cpt,300,1456650,,,,False,,,,,,,,,
701.0,image-cpt,301,1459300,,,32,True,,,,,,,,,
,image-cpt,302,1461449,,,,False,,,,,,,,,
733.0,image-cpt,303,1464583,,,32,True,,,,,,,,,
,image-cpt,304,1468231,,,,False,,,,,,,,,
671.0,image-cpt,305,1471866,,,32,True,,,,,,,,,
701.0,image-cpt,306,1474514,,,32,True,,,,,,,,,
789.0,image-cpt,307,1477165,,,32,True,,,,,,,,,
,image-cpt,308,1480315,,,,False,,,,,,,,,
,image-cpt,309,1482965,,,,False,,,,,,,,,
,image-cpt,310,1485598,,,,False,,,,,,,,,
,image-cpt,311,1488231,,,,False,,,,,,,,,
,image-cpt,312,1491381,,,,False,,,,,,,,,
594.0,image-cpt,313,1495014,,,32,True,,,,,,,,,
,image-cpt,314,1497164,,,,False,,,,,,,,,
,image-cpt,315,1499814,,,,False,,,,,,,,,
,image-cpt,316,1503463,,,,False,,,,,,,,,
,image-cpt,317,1506097,,,,False,,,,,,,,,
,image-cpt,318,1508747,,,,False,,,,,,,,,
,image-cpt,319,1511880,,,,False,,,,,,,,,
,image-cpt,320,1515513,,,,False,,,,,,,,,
,image-cpt,321,1519163,,,,False,,,,,,,,,
,image-cpt,322,1522313,,,,False,,,,,,,,,
,image-cpt,323,1525946,,,,False,,,,,,,,,
749.0,image-cpt,324,1528079,,,32,True,,,,,,,,,
,image-cpt,325,1530229,,,,False,,,,,,,,,
721.0,image-cpt,326,1532879,,,32,True,,,,,,,,,
808.0,image-cpt,327,1536529,,,32,True,,,,,,,,,
,image-cpt,328,1538679,,,,False,,,,,,,,,
704.0,image-cpt,329,1541314,,,32,True,,,,,,,,,
,image-cpt,330,1544962,,,,False,,,,,,,,,
,image-cpt,331,1547095,,,,False,,,,,,,,,
,image-cpt,332,1549728,,,,False,,,,,,,,,
983.0,image-cpt,333,1552861,,,32,True,,,,,,,,,
,image-cpt,334,1555496,,,,False,,,,,,,,,
719.0,image-cpt,335,1558143,,,32,True,,,,,,,,,
1064.0,image-cpt,336,1561794,,,32,True,,,,,,,,,
,image-cpt,337,1563927,,,,False,,,,,,,,,
,image-cpt,338,1567581,,,,False,,,,,,,,,
,image-cpt,339,1570727,,,,False,,,,,,,,,
,image-cpt,340,1572860,,,,False,,,,,,,,,
955.0,image-cpt,341,1575493,,,32,True,,,,,,,,,
35171.0,instructions,342,1610664,,,,,,,,,,,,,
2284.300000190735,bRMS,343,1613360,,,Q,,images/rms/f42887_e_001.jpg,training,1.0,400.0,True,True,0.0,63.0,63.0
695.8999996185303,bRMS,344,1614857,,,Q,,images/rms/f42887_e_001.jpg,training,1.0,400.0,True,True,0.0,63.0,63.0
912.5,bRMS,345,1616577,,,Q,,images/rms/f42887_e_001.jpg,training,1.0,400.0,True,True,0.0,63.0,63.0
2275.0999994277954,bRMS,346,1619657,,,P,,images/rms/f42887_e_001.jpg,training,0.0,400.0,True,True,0.0,63.0,63.0
947.3000001907347,bRMS,347,1621409,,,P,,images/rms/f42887_e_001.jpg,training,0.0,400.0,True,True,0.0,63.0,63.0
1013.3000001907347,bRMS,348,1623225,,,Q,,images/rms/f42887_e_001.jpg,training,1.0,400.0,True,True,0.0,63.0,63.0
607.4000005722046,bRMS,349,1624633,,,Q,,images/rms/f42887_e_001.jpg,training,1.0,400.0,True,True,0.0,63.0,63.0
551.3000001907349,bRMS,350,1626008,,,P,,images/rms/f42887_e_001.jpg,training,0.0,400.0,True,True,0.0,63.0,63.0
574.6999998092651,bRMS,351,1627409,,,Q,,images/rms/f42887_e_001.jpg,training,1.0,400.0,True,True,0.0,63.0,63.0
547.6999998092651,bRMS,352,1628769,,,P,,images/rms/f42887_e_001.jpg,training,0.0,400.0,True,True,0.0,63.0,63.0
497.69999980926514,bRMS,353,1630073,,,Q,,images/rms/f42887_e_001.jpg,training,1.0,400.0,True,True,0.0,63.0,63.0
538.5999994277954,bRMS,354,1631425,,,Q,,images/rms/f42887_e_001.jpg,training,1.0,400.0,True,True,0.0,63.0,63.0
577.8999996185303,bRMS,355,1632802,,,Q,,images/rms/f42887_e_001.jpg,training,1.0,400.0,True,True,0.0,63.0,63.0
596.4000005722046,bRMS,356,1634209,,,P,,images/rms/f42887_e_001.jpg,training,0.0,400.0,True,True,0.0,63.0,63.0
520.8999996185303,bRMS,357,1635536,,,P,,images/rms/f42887_e_001.jpg,training,0.0,400.0,True,True,0.0,63.0,63.0
477.8999996185303,bRMS,358,1636833,,,Q,,images/rms/f42887_e_001.jpg,training,1.0,400.0,True,True,0.0,63.0,63.0
2087.0,instructions,359,1639328,,,,,,,,,,,,,
938.6000003814696,bRMS,360,1640665,,,P,,images/rms/f42887_e_259.jpg,main,0.0,400.0,True,True,0.0,63.0,63.0
490.6000003814697,bRMS,361,1641953,,,P,,images/rms/f42887_e_241_1.jpg,reversed,0.0,400.0,True,True,0.0,63.0,63.0
734.5999994277954,bRMS,362,1643497,,,P,,images/rms/f42887_e_297.jpg,main,0.0,400.0,True,True,0.0,63.0,63.0
598.5,bRMS,363,1644905,,,P,,images/rms/f42887_e_293_1.jpg,reversed,0.0,400.0,True,True,0.0,63.0,63.0
527.4000005722046,bRMS,364,1646233,,,Q,,images/rms/f42887_e_015.jpg,main,0.0,400.0,True,False,0.0,63.0,63.0
423.0,bRMS,365,1647465,,,P,,images/rms/f42887_e_005_1.jpg,reversed,0.0,400.0,True,True,0.0,63.0,63.0
570.1999998092651,bRMS,366,1648839,,,P,,images/rms/f42887_e_064.jpg,main,0.0,400.0,True,True,0.0,63.0,63.0
656.0,bRMS,367,1650297,,,P,,images/rms/f42887_e_028_1.jpg,reversed,1.0,400.0,True,False,0.0,63.0,63.0
839.8000001907349,bRMS,368,1651928,,,P,,images/rms/f42887_e_025_1.jpg,reversed,0.0,400.0,True,True,0.0,63.0,63.0
455.5,bRMS,369,1653200,,,P,,images/rms/f42887_e_053.jpg,main,0.0,400.0,True,True,0.0,63.0,63.0
767.8000001907349,bRMS,370,1654755,,,Q,,images/rms/f42887_e_025.jpg,main,1.0,400.0,True,True,0.0,63.0,63.0
946.0999994277954,bRMS,371,1656505,,,P,,images/rms/f42887_e_127_1.jpg,reversed,0.0,400.0,True,True,0.0,63.0,63.0
572.8000001907349,bRMS,372,1657888,,,Q,,images/rms/f42887_e_297_1.jpg,reversed,1.0,400.0,True,True,0.0,63.0,63.0
581.1999998092651,bRMS,373,1659289,,,P,,images/rms/f42887_e_296_1.jpg,reversed,0.0,400.0,True,True,0.0,63.0,63.0
520.6000003814697,bRMS,374,1660600,,,Q,,images/rms/f42887_e_005.jpg,main,1.0,400.0,True,True,0.0,63.0,63.0
781.8000001907349,bRMS,375,1662184,,,Q,,images/rms/f42887_e_058_1.jpg,reversed,1.0,400.0,True,True,0.0,63.0,63.0
427.19999980926514,bRMS,376,1663416,,,P,,images/rms/f42887_e_161_1.jpg,reversed,0.0,400.0,True,True,0.0,63.0,63.0
460.0999994277954,bRMS,377,1664681,,,Q,,images/rms/f42887_e_295_1.jpg,reversed,1.0,400.0,True,True,0.0,63.0,63.0
838.0,bRMS,378,1666336,,,Q,,images/rms/f42887_e_121.jpg,main,0.0,400.0,True,False,0.0,63.0,63.0
1009.6999998092653,bRMS,379,1668152,,,Q,,images/rms/f42887_e_072_1.jpg,reversed,1.0,400.0,True,True,0.0,63.0,63.0
703.9000005722046,bRMS,380,1669655,,,P,,images/rms/f42887_e_058.jpg,main,0.0,400.0,True,True,0.0,63.0,63.0
570.6000003814697,bRMS,381,1671032,,,P,,images/rms/f42887_e_296.jpg,main,0.0,400.0,True,True,0.0,63.0,63.0
497.30000019073486,bRMS,382,1672353,,,Q,,images/rms/f42887_e_298_1.jpg,reversed,1.0,400.0,True,True,0.0,63.0,63.0
691.0999994277954,bRMS,383,1673848,,,Q,,images/rms/f42887_e_127.jpg,main,1.0,400.0,True,True,0.0,63.0,63.0
516.3999996185303,bRMS,384,1675177,,,P,,images/rms/f42887_e_028.jpg,main,0.0,400.0,True,True,0.0,63.0,63.0
633.3000001907349,bRMS,385,1676632,,,P,,images/rms/f42887_e_140_1.jpg,reversed,0.0,400.0,True,True,0.0,63.0,63.0
478.5999994277954,bRMS,386,1677928,,,Q,,images/rms/f42887_e_001.jpg,main,1.0,400.0,True,True,0.0,63.0,63.0
490.4000005722046,bRMS,387,1679221,,,P,,images/rms/f42887_e_293.jpg,main,0.0,400.0,True,True,0.0,63.0,63.0
531.5,bRMS,388,1680569,,,P,,images/rms/f42887_e_121_1.jpg,reversed,0.0,400.0,True,True,0.0,63.0,63.0
1396.1999998092651,bRMS,389,1682769,,,Q,,images/rms/f42887_e_161.jpg,main,1.0,400.0,True,True,0.0,63.0,63.0
883.0999994277954,bRMS,390,1684449,,,P,,images/rms/f42887_e_245.jpg,main,0.0,400.0,True,True,0.0,63.0,63.0
643.8000001907349,bRMS,391,1685920,,,Q,,images/rms/f42887_e_258_1.jpg,reversed,1.0,400.0,True,True,0.0,63.0,63.0
557.5,bRMS,392,1687288,,,P,,images/rms/f42887_e_241.jpg,main,0.0,400.0,True,True,0.0,63.0,63.0
652.0,bRMS,393,1688745,,,Q,,images/rms/f42887_e_202_1.jpg,reversed,1.0,400.0,True,True,0.0,63.0,63.0
608.0,bRMS,394,1690153,,,Q,,images/rms/f42887_e_180.jpg,main,1.0,400.0,True,True,0.0,63.0,63.0
582.4000005722046,bRMS,395,1691553,,,Q,,images/rms/f42887_e_103.jpg,main,1.0,400.0,True,True,0.0,63.0,63.0
523.1999998092651,bRMS,396,1692888,,,P,,images/rms/f42887_e_001_1.jpg,reversed,0.0,400.0,True,True,0.0,63.0,63.0
435.69999980926514,bRMS,397,1694137,,,Q,,images/rms/f42887_e_289.jpg,main,1.0,400.0,True,True,0.0,63.0,63.0
642.5,bRMS,398,1695601,,,Q,,images/rms/f42887_e_103_1.jpg,reversed,1.0,400.0,True,True,0.0,63.0,63.0
504.80000019073486,bRMS,399,1696921,,,Q,,images/rms/f42887_e_098.jpg,main,1.0,400.0,True,True,0.0,63.0,63.0
745.8000001907349,bRMS,400,1698470,,,Q,,images/rms/f42887_e_098_1.jpg,reversed,1.0,400.0,True,True,0.0,63.0,63.0
485.0,bRMS,401,1699753,,,Q,,images/rms/f42887_e_298.jpg,main,1.0,400.0,True,True,0.0,63.0,63.0
656.9000005722046,bRMS,402,1701203,,,P,,images/rms/f42887_e_259_1.jpg,reversed,0.0,400.0,True,True,0.0,63.0,63.0
905.3000001907347,bRMS,403,1702903,,,Q,,images/rms/f42887_e_080_1.jpg,reversed,1.0,400.0,True,True,0.0,63.0,63.0
1074.3000001907349,bRMS,404,1704777,,,P,,images/rms/f42887_e_064_1.jpg,reversed,0.0,400.0,True,True,0.0,63.0,63.0
1004.1999998092653,bRMS,405,1706584,,,P,,images/rms/f42887_e_252_1.jpg,reversed,0.0,400.0,True,True,0.0,63.0,63.0
751.3000001907349,bRMS,406,1708128,,,Q,,images/rms/f42887_e_180_1.jpg,reversed,1.0,400.0,True,True,0.0,63.0,63.0
658.6999998092651,bRMS,407,1709592,,,Q,,images/rms/f42887_e_015_1.jpg,reversed,1.0,400.0,True,True,0.0,63.0,63.0
568.6999998092651,bRMS,408,1710969,,,Q,,images/rms/f42887_e_053_1.jpg,reversed,1.0,400.0,True,True,0.0,63.0,63.0
831.3000001907349,bRMS,409,1712600,,,Q,,images/rms/f42887_e_156.jpg,main,1.0,400.0,True,True,0.0,63.0,63.0
620.6000003814697,bRMS,410,1714020,,,P,,images/rms/f42887_e_080.jpg,main,0.0,400.0,True,True,0.0,63.0,63.0
605.3000001907349,bRMS,411,1715417,,,P,,images/rms/f42887_e_252.jpg,main,0.0,400.0,True,True,0.0,63.0,63.0
705.3999996185303,bRMS,412,1716919,,,P,,images/rms/f42887_e_156_1.jpg,reversed,0.0,400.0,True,True,0.0,63.0,63.0
525.3000001907349,bRMS,413,1718249,,,Q,,images/rms/f42887_e_072.jpg,main,1.0,400.0,True,True,0.0,63.0,63.0
580.8000001907349,bRMS,414,1719633,,,P,,images/rms/f42887_e_278.jpg,main,0.0,400.0,True,True,0.0,63.0,63.0
518.1000003814697,bRMS,415,1720952,,,P,,images/rms/f42887_e_289_1.jpg,reversed,0.0,400.0,True,True,0.0,63.0,63.0
572.1999998092651,bRMS,416,1722336,,,Q,,images/rms/f42887_e_278_1.jpg,reversed,1.0,400.0,True,True,0.0,63.0,63.0
487.5,bRMS,417,1723624,,,Q,,images/rms/f42887_e_140.jpg,main,1.0,400.0,True,True,0.0,63.0,63.0
601.0,bRMS,418,1725033,,,Q,,images/rms/f42887_e_295.jpg,main,1.0,400.0,True,True,0.0,63.0,63.0
477.5999994277954,bRMS,419,1726313,,,Q,,images/rms/f42887_e_202.jpg,main,1.0,400.0,True,True,0.0,63.0,63.0
502.8999996185303,bRMS,420,1727632,,,Q,,images/rms/f42887_e_245_1.jpg,reversed,1.0,400.0,True,True,0.0,63.0,63.0
552.3999996185303,bRMS,421,1728985,,,Q,,images/rms/f42887_e_258.jpg,main,1.0,400.0,True,True,0.0,63.0,63.0
10253.0,instructions,422,1739648,,,,,,,,,,,,,
843.5,bRMS,423,1740897,,,Q,,images/rms/f42887_e_298.jpg,control_main,1.0,400.0,True,True,0.0,63.0,63.0
481.6000003814697,bRMS,424,1742184,,,P,,images/rms/f42887_e_121_1.jpg,control_reversed,0.0,400.0,True,True,0.0,63.0,63.0
483.69999980926514,bRMS,425,1743465,,,P,,images/rms/f42887_e_064_1.jpg,control_reversed,0.0,400.0,True,True,0.0,63.0,63.0
436.69999980926514,bRMS,426,1744697,,,P,,images/rms/f42887_e_180_1.jpg,control_reversed,0.0,400.0,True,True,0.0,63.0,63.0
368.69999980926514,bRMS,427,1745865,,,P,,images/rms/f42887_e_296.jpg,control_main,0.0,400.0,True,True,0.0,63.0,63.0
497.5999994277954,bRMS,428,1747161,,,Q,,images/rms/f42887_e_080_1.jpg,control_reversed,1.0,400.0,True,True,0.0,63.0,63.0
457.69999980926514,bRMS,429,1748424,,,P,,images/rms/f42887_e_296_1.jpg,control_reversed,0.0,400.0,True,True,0.0,63.0,63.0
567.6000003814697,bRMS,430,1749800,,,P,,images/rms/f42887_e_140.jpg,control_main,0.0,400.0,True,True,0.0,63.0,63.0
435.29999923706055,bRMS,431,1751033,,,P,,images/rms/f42887_e_127.jpg,control_main,0.0,400.0,True,True,0.0,63.0,63.0
419.3999996185303,bRMS,432,1752249,,,Q,,images/rms/f42887_e_295.jpg,control_main,0.0,400.0,True,False,0.0,63.0,63.0
419.0,bRMS,433,1753464,,,P,,images/rms/f42887_e_064.jpg,control_main,0.0,400.0,True,True,0.0,63.0,63.0
496.3999996185303,bRMS,434,1754760,,,Q,,images/rms/f42887_e_156.jpg,control_main,1.0,400.0,True,True,0.0,63.0,63.0
393.0999994277954,bRMS,435,1755960,,,P,,images/rms/f42887_e_259_1.jpg,control_reversed,0.0,400.0,True,True,0.0,63.0,63.0
344.0999994277954,bRMS,436,1757112,,,P,,images/rms/f42887_e_053_1.jpg,control_reversed,0.0,400.0,True,True,0.0,63.0,63.0
316.0999994277954,bRMS,437,1758233,,,P,,images/rms/f42887_e_098_1.jpg,control_reversed,0.0,400.0,True,True,0.0,63.0,63.0
293.1000003814697,bRMS,438,1759312,,,P,,images/rms/f42887_e_252_1.jpg,control_reversed,1.0,400.0,True,False,0.0,63.0,63.0
501.30000019073486,bRMS,439,1760617,,,P,,images/rms/f42887_e_058_1.jpg,control_reversed,0.0,400.0,True,True,0.0,63.0,63.0
530.5999994277954,bRMS,440,1761944,,,P,,images/rms/f42887_e_140_1.jpg,control_reversed,0.0,400.0,True,True,0.0,63.0,63.0
470.69999980926514,bRMS,441,1763225,,,P,,images/rms/f42887_e_289_1.jpg,control_reversed,0.0,400.0,True,True,0.0,63.0,63.0
522.6999998092651,bRMS,442,1764545,,,P,,images/rms/f42887_e_127_1.jpg,control_reversed,0.0,400.0,True,True,0.0,63.0,63.0
337.5,bRMS,443,1765697,,,P,,images/rms/f42887_e_241_1.jpg,control_reversed,1.0,400.0,True,False,0.0,63.0,63.0
489.3999996185303,bRMS,444,1766983,,,P,,images/rms/f42887_e_080.jpg,control_main,0.0,400.0,True,True,0.0,63.0,63.0
485.5,bRMS,445,1768264,,,P,,images/rms/f42887_e_295_1.jpg,control_reversed,0.0,400.0,True,True,0.0,63.0,63.0
465.80000019073486,bRMS,446,1769528,,,Q,,images/rms/f42887_e_028_1.jpg,control_reversed,1.0,400.0,True,True,0.0,63.0,63.0
535.1999998092651,bRMS,447,1770873,,,Q,,images/rms/f42887_e_156_1.jpg,control_reversed,1.0,400.0,True,True,0.0,63.0,63.0
446.19999980926514,bRMS,448,1772128,,,Q,,images/rms/f42887_e_202_1.jpg,control_reversed,1.0,400.0,True,True,0.0,63.0,63.0
385.80000019073486,bRMS,449,1773299,,,Q,,images/rms/f42887_e_015_1.jpg,control_reversed,1.0,400.0,True,True,0.0,63.0,63.0
350.5,bRMS,450,1774449,,,Q,,images/rms/f42887_e_258_1.jpg,control_reversed,1.0,400.0,True,True,0.0,63.0,63.0
328.9000005722046,bRMS,451,1775576,,,Q,,images/rms/f42887_e_028.jpg,control_main,0.0,400.0,True,False,0.0,63.0,63.0
408.9000005722046,bRMS,452,1776793,,,P,,images/rms/f42887_e_245_1.jpg,control_reversed,0.0,400.0,True,True,0.0,63.0,63.0
474.30000019073486,bRMS,453,1778081,,,Q,,images/rms/f42887_e_098.jpg,control_main,1.0,400.0,True,True,0.0,63.0,63.0
471.9000005722046,bRMS,454,1779345,,,P,,images/rms/f42887_e_202.jpg,control_main,0.0,400.0,True,True,0.0,63.0,63.0
520.8000001907349,bRMS,455,1780664,,,P,,images/rms/f42887_e_297_1.jpg,control_reversed,0.0,400.0,True,True,0.0,63.0,63.0
513.1999998092651,bRMS,456,1781977,,,Q,,images/rms/f42887_e_180.jpg,control_main,1.0,400.0,True,True,0.0,63.0,63.0
410.6000003814697,bRMS,457,1783192,,,P,,images/rms/f42887_e_278_1.jpg,control_reversed,0.0,400.0,True,True,0.0,63.0,63.0
522.1000003814697,bRMS,458,1784529,,,P,,images/rms/f42887_e_293.jpg,control_main,0.0,400.0,True,True,0.0,63.0,63.0
512.8999996185303,bRMS,459,1785849,,,P,,images/rms/f42887_e_259.jpg,control_main,0.0,400.0,True,True,0.0,63.0,63.0
417.1000003814697,bRMS,460,1787064,,,P,,images/rms/f42887_e_005.jpg,control_main,0.0,400.0,True,True,0.0,63.0,63.0
388.69999980926514,bRMS,461,1788249,,,P,,images/rms/f42887_e_072.jpg,control_main,0.0,400.0,True,True,0.0,63.0,63.0
514.6999998092651,bRMS,462,1789561,,,P,,images/rms/f42887_e_289.jpg,control_main,0.0,400.0,True,True,0.0,63.0,63.0
516.7999992370605,bRMS,463,1790873,,,Q,,images/rms/f42887_e_252.jpg,control_main,1.0,400.0,True,True,0.0,63.0,63.0
508.19999980926514,bRMS,464,1792200,,,Q,,images/rms/f42887_e_015.jpg,control_main,1.0,400.0,True,True,0.0,63.0,63.0
466.1000003814697,bRMS,465,1793481,,,Q,,images/rms/f42887_e_121.jpg,control_main,1.0,400.0,True,True,0.0,63.0,63.0
449.69999980926514,bRMS,466,1794728,,,P,,images/rms/f42887_e_025_1.jpg,control_reversed,0.0,400.0,True,True,0.0,63.0,63.0
434.0,bRMS,467,1795960,,,Q,,images/rms/f42887_e_103_1.jpg,control_reversed,1.0,400.0,True,True,0.0,63.0,63.0
392.30000019073486,bRMS,468,1797161,,,P,,images/rms/f42887_e_245.jpg,control_main,0.0,400.0,True,True,0.0,63.0,63.0
530.1000003814697,bRMS,469,1798496,,,Q,,images/rms/f42887_e_241.jpg,control_main,1.0,400.0,True,True,0.0,63.0,63.0
346.9000005722046,bRMS,470,1799640,,,P,,images/rms/f42887_e_005_1.jpg,control_reversed,1.0,400.0,True,False,0.0,63.0,63.0
454.5,bRMS,471,1800896,,,Q,,images/rms/f42887_e_001_1.jpg,control_reversed,1.0,400.0,True,True,0.0,63.0,63.0
392.30000019073486,bRMS,472,1802097,,,Q,,images/rms/f42887_e_297.jpg,control_main,1.0,400.0,True,True,0.0,63.0,63.0
359.4000005722046,bRMS,473,1803256,,,Q,,images/rms/f42887_e_258.jpg,control_main,0.0,400.0,True,False,0.0,63.0,63.0
399.3999996185303,bRMS,474,1804457,,,P,,images/rms/f42887_e_072_1.jpg,control_reversed,0.0,400.0,True,True,0.0,63.0,63.0
424.8999996185303,bRMS,475,1805688,,,Q,,images/rms/f42887_e_161.jpg,control_main,1.0,400.0,True,True,0.0,63.0,63.0
680.1000003814697,bRMS,476,1807176,,,P,,images/rms/f42887_e_103.jpg,control_main,0.0,400.0,True,True,0.0,63.0,63.0
532.3999996185303,bRMS,477,1808513,,,P,,images/rms/f42887_e_001.jpg,control_main,0.0,400.0,True,True,0.0,63.0,63.0
537.8999996185303,bRMS,478,1809848,,,Q,,images/rms/f42887_e_278.jpg,control_main,1.0,400.0,True,True,0.0,63.0,63.0
533.3999996185303,bRMS,479,1811177,,,P,,images/rms/f42887_e_025.jpg,control_main,0.0,400.0,True,True,0.0,63.0,63.0
450.80000019073486,bRMS,480,1812432,,,P,,images/rms/f42887_e_161_1.jpg,control_reversed,0.0,400.0,True,True,0.0,63.0,63.0
472.9000005722046,bRMS,481,1813729,,,Q,,images/rms/f42887_e_293_1.jpg,control_reversed,1.0,400.0,True,True,0.0,63.0,63.0
457.5,bRMS,482,1814993,,,P,,images/rms/f42887_e_298_1.jpg,control_reversed,0.0,400.0,True,True,0.0,63.0,63.0
433.0,bRMS,483,1816231,,,P,,images/rms/f42887_e_058.jpg,control_main,0.0,400.0,True,True,0.0,63.0,63.0
521.2999992370605,bRMS,484,1817544,,,Q,,images/rms/f42887_e_053.jpg,control_main,1.0,400.0,True,True,0.0,63.0,63.0
3034.0,instructions,485,1820993,,,,,,,,,,,,,
20287.0,survey-likert,486,1841281,"{""Q0"":1,""Q1"":1,""Q2"":3}",ASRS_2_6,,,,,,,,,,,
21502.0,survey-likert,487,1862785,"{""Q0"":2,""Q1"":3,""Q2"":2}",ASRS_2_9,,,,,,,,,,,
17910.0,survey-likert,488,1880697,"{""Q0"":2,""Q1"":1,""Q2"":0}",ASRS_2_3,,,,,,,,,,,
15030.0,survey-likert,489,1895729,"{""Q0"":2,""Q1"":2,""Q2"":1}",ASRS_1_0,,,,,,,,,,,
38318.0,survey-likert,490,1934049,"{""Q0"":2,""Q1"":1,""Q2"":2}",ASRS_2_0,,,,,,,,,,,
19656.0,survey-likert,491,1953705,"{""Q0"":1,""Q1"":0,""Q2"":2}",ASRS_1_3,,,,,,,,,,,
5566.0,survey-likert,492,1959273,"{""Q0"":4}",LAST_1,,,,,,,,,,,
2406.0,survey-multi-choice,493,1961681,"{""Q0"":""כן""}",,,,,,,,,,,,
35358.0,survey-text,494,1997041,"{""Q0"":""לא להתמקד בזה, אלא להסתכל על הפלוס ולשים לאובייקט שונה בין הצדדים""}",,,,,,,,,,,,
6535.0,survey-likert,495,2003577,"{""Q0"":4}",LAST_4,,,,,,,,,,,
3150.0,survey-multi-choice,496,2006729,"{""Q0"":""לא""}",,,,,,,,,,,,
1791.0,survey-text,497,2008521,"{""Q0"":""""}",,,,,,,,,,,,
11223.0,survey-likert,498,2019745,"{""Q0"":4}",DRIVE_1,,,,,,,,,,,
15351.0,survey-text,499,2035096,"{""Q0"":""כלל לא""}",,,,,,,,,,,,
13599.0,survey-text,500,2048697,"{""Q0"":""2""}",,,,,,,,,,,,
1439.0,instructions,501,2050137,,,,,,,,,,,,,
