rt,trial_type,trial_index,time_elapsed,responses,name,key_press,is_stimulus,stimulus,stimulus_block,stimulus_side,time_post_trial,is_fullscreen,correct,trial_began,block,sub_block
12058.0,instructions,0,12060,,,,,,,,,,,,,
11181.0,survey-multi-choice,1,23243,"{""Q0"":""אישה"",""Q1"":""ימין"",""Q2"":""עברית""}",,,,,,,,,,,,
4727.0,survey-text,2,27971,"{""Q0"":""22"",""Q1"":""6""}",,,,,,,,,,,,
2439.0,survey-multi-choice,3,30411,"{""Q0"":""לא""}",,,,,,,,,,,,
5486.0,survey-likert,4,35899,"{""Q0"":1}",attention_2,,,,,,,,,,,
8095.0,instructions,5,43995,,,,,,,,,,,,,
,image-cpt,6,45018,,,,False,,,,,,,,,
,image-cpt,7,48135,,,,False,,,,,,,,,
,image-cpt,8,50284,,,,False,,,,,,,,,
,image-cpt,9,52434,,,,False,,,,,,,,,
392.0,image-cpt,10,55084,,,32,True,,,,,,,,,
,image-cpt,11,57234,,,,False,,,,,,,,,
280.0,image-cpt,12,59868,,,32,True,,,,,,,,,
,image-cpt,13,63502,,,,False,,,,,,,,,
333.0,image-cpt,14,66151,,,32,False,,,,,,,,,
,image-cpt,15,69283,,,,False,,,,,,,,,
,image-cpt,16,72425,,,,False,,,,,,,,,
,image-cpt,17,75066,,,,False,,,,,,,,,
545.0,image-cpt,18,77217,,,32,True,,,,,,,,,
426.0,image-cpt,19,80851,,,32,True,,,,,,,,,
,image-cpt,20,84484,,,,False,,,,,,,,,
4454.0,instructions,21,88939,,,,,,,,,,,,,
,image-cpt,22,91081,,,,False,,,,,,,,,
,image-cpt,23,94714,,,,False,,,,,,,,,
,image-cpt,24,96847,,,,False,,,,,,,,,
316.0,image-cpt,25,100480,,,32,False,,,,,,,,,
459.0,image-cpt,26,103130,,,32,True,,,,,,,,,
,image-cpt,27,105245,,,,False,,,,,,,,,
366.0,image-cpt,28,108396,,,32,True,,,,,,,,,
,image-cpt,29,111046,,,,False,,,,,,,,,
357.0,image-cpt,30,113696,,,32,True,,,,,,,,,
,image-cpt,31,116347,,,,False,,,,,,,,,
,image-cpt,32,119497,,,,False,,,,,,,,,
307.0,image-cpt,33,122146,,,32,True,,,,,,,,,
392.0,image-cpt,34,124296,,,32,True,,,,,,,,,
,image-cpt,35,127446,,,,False,,,,,,,,,
,image-cpt,36,130596,,,,False,,,,,,,,,
,image-cpt,37,133746,,,,False,,,,,,,,,
377.0,image-cpt,38,135896,,,32,False,,,,,,,,,
419.0,image-cpt,39,139046,,,32,True,,,,,,,,,
,image-cpt,40,142195,,,,False,,,,,,,,,
,image-cpt,41,144845,,,,False,,,,,,,,,
,image-cpt,42,147995,,,,False,,,,,,,,,
,image-cpt,43,151645,,,,False,,,,,,,,,
446.0,image-cpt,44,153795,,,32,True,,,,,,,,,
392.0,image-cpt,45,157444,,,32,True,,,,,,,,,
,image-cpt,46,160079,,,,False,,,,,,,,,
,image-cpt,47,162227,,,,False,,,,,,,,,
,image-cpt,48,165878,,,,False,,,,,,,,,
,image-cpt,49,169527,,,,False,,,,,,,,,
,image-cpt,50,172677,,,,False,,,,,,,,,
373.0,image-cpt,51,174827,,,32,True,,,,,,,,,
528.0,image-cpt,52,178477,,,32,True,,,,,,,,,
,image-cpt,53,180627,,,,False,,,,,,,,,
359.0,image-cpt,54,183777,,,32,True,,,,,,,,,
,image-cpt,55,186427,,,,False,,,,,,,,,
,image-cpt,56,189077,,,,False,,,,,,,,,
,image-cpt,57,192711,,,,False,,,,,,,,,
436.0,image-cpt,58,196344,,,32,True,,,,,,,,,
547.0,image-cpt,59,198993,,,32,True,,,,,,,,,
,image-cpt,60,201126,,,,False,,,,,,,,,
,image-cpt,61,204776,,,,False,,,,,,,,,
467.0,image-cpt,62,207926,,,32,True,,,,,,,,,
373.0,image-cpt,63,211576,,,32,True,,,,,,,,,
,image-cpt,64,214225,,,,False,,,,,,,,,
,image-cpt,65,216359,,,,False,,,,,,,,,
,image-cpt,66,220009,,,,False,,,,,,,,,
434.0,image-cpt,67,222658,,,32,True,,,,,,,,,
,image-cpt,68,226308,,,,False,,,,,,,,,
391.0,image-cpt,69,228458,,,32,True,,,,,,,,,
,image-cpt,70,232108,,,,False,,,,,,,,,
,image-cpt,71,235758,,,,False,,,,,,,,,
,image-cpt,72,237908,,,,False,,,,,,,,,
391.0,image-cpt,73,240557,,,32,True,,,,,,,,,
,image-cpt,74,243708,,,,False,,,,,,,,,
415.0,image-cpt,75,246358,,,32,True,,,,,,,,,
358.0,image-cpt,76,248992,,,32,True,,,,,,,,,
347.0,image-cpt,77,251141,,,32,True,,,,,,,,,
,image-cpt,78,254291,,,,False,,,,,,,,,
,image-cpt,79,256441,,,,False,,,,,,,,,
,image-cpt,80,259575,,,,False,,,,,,,,,
,image-cpt,81,263224,,,,False,,,,,,,,,
,image-cpt,82,266873,,,,False,,,,,,,,,
,image-cpt,83,270008,,,,False,,,,,,,,,
,image-cpt,84,272157,,,,False,,,,,,,,,
,image-cpt,85,275306,,,,False,,,,,,,,,
,image-cpt,86,278440,,,,False,,,,,,,,,
,image-cpt,87,280590,,,,False,,,,,,,,,
446.0,image-cpt,88,283739,,,32,True,,,,,,,,,
,image-cpt,89,285889,,,,False,,,,,,,,,
441.0,image-cpt,90,288023,,,32,False,,,,,,,,,
,image-cpt,91,290673,,,,False,,,,,,,,,
315.0,image-cpt,92,292807,,,32,True,,,,,,,,,
,image-cpt,93,296456,,,,False,,,,,,,,,
420.0,image-cpt,94,298606,,,32,True,,,,,,,,,
,image-cpt,95,301240,,,,False,,,,,,,,,
,image-cpt,96,303389,,,,False,,,,,,,,,
399.0,image-cpt,97,306023,,,32,True,,,,,,,,,
,image-cpt,98,308671,,,,False,,,,,,,,,
,image-cpt,99,312321,,,,False,,,,,,,,,
,image-cpt,100,315454,,,,False,,,,,,,,,
748.0,image-cpt,101,319088,,,32,True,,,,,,,,,
,image-cpt,102,322237,,,,False,,,,,,,,,
397.0,image-cpt,103,325387,,,32,True,,,,,,,,,
,image-cpt,104,327537,,,,False,,,,,,,,,
,image-cpt,105,331187,,,,False,,,,,,,,,
,image-cpt,106,334337,,,,False,,,,,,,,,
,image-cpt,107,336987,,,,False,,,,,,,,,
448.0,image-cpt,108,339637,,,32,True,,,,,,,,,
,image-cpt,109,342787,,,,False,,,,,,,,,
424.0,image-cpt,110,345436,,,32,True,,,,,,,,,
,image-cpt,111,349071,,,,False,,,,,,,,,
,image-cpt,112,351704,,,,False,,,,,,,,,
,image-cpt,113,354852,,,,False,,,,,,,,,
,image-cpt,114,358003,,,,False,,,,,,,,,
,image-cpt,115,360652,,,,False,,,,,,,,,
462.0,image-cpt,116,363287,,,32,True,,,,,,,,,
,image-cpt,117,366936,,,,False,,,,,,,,,
,image-cpt,118,370085,,,,False,,,,,,,,,
,image-cpt,119,373736,,,,False,,,,,,,,,
,image-cpt,120,376385,,,,False,,,,,,,,,
,image-cpt,121,379035,,,,False,,,,,,,,,
368.0,image-cpt,122,381685,,,32,True,,,,,,,,,
,image-cpt,123,383835,,,,False,,,,,,,,,
,image-cpt,124,387485,,,,False,,,,,,,,,
,image-cpt,125,389634,,,,False,,,,,,,,,
,image-cpt,126,393285,,,,False,,,,,,,,,
,image-cpt,127,396919,,,,False,,,,,,,,,
,image-cpt,128,399067,,,,False,,,,,,,,,
,image-cpt,129,402717,,,,False,,,,,,,,,
510.0,image-cpt,130,406367,,,32,True,,,,,,,,,
,image-cpt,131,409018,,,,False,,,,,,,,,
,image-cpt,132,411167,,,,False,,,,,,,,,
429.0,image-cpt,133,413317,,,32,True,,,,,,,,,
,image-cpt,134,416467,,,,False,,,,,,,,,
,image-cpt,135,419117,,,,False,,,,,,,,,
,image-cpt,136,422751,,,,False,,,,,,,,,
,image-cpt,137,425391,,,,False,,,,,,,,,
,image-cpt,138,428533,,,,False,,,,,,,,,
,image-cpt,139,431683,,,,False,,,,,,,,,
,image-cpt,140,434832,,,,False,,,,,,,,,
,image-cpt,141,436967,,,,False,,,,,,,,,
,image-cpt,142,440099,,,,False,,,,,,,,,
,image-cpt,143,442749,,,,False,,,,,,,,,
,image-cpt,144,446382,,,,False,,,,,,,,,
446.0,image-cpt,145,449032,,,32,True,,,,,,,,,
547.0,image-cpt,146,451166,,,32,True,,,,,,,,,
,image-cpt,147,454799,,,,False,,,,,,,,,
,image-cpt,148,457948,,,,False,,,,,,,,,
416.0,image-cpt,149,461098,,,32,True,,,,,,,,,
368.0,image-cpt,150,463748,,,32,True,,,,,,,,,
,image-cpt,151,465898,,,,False,,,,,,,,,
,image-cpt,152,468048,,,,False,,,,,,,,,
300.0,image-cpt,153,470183,,,32,True,,,,,,,,,
405.0,image-cpt,154,472831,,,32,True,,,,,,,,,
412.0,image-cpt,155,475481,,,32,True,,,,,,,,,
,image-cpt,156,478131,,,,False,,,,,,,,,
,image-cpt,157,481780,,,,False,,,,,,,,,
,image-cpt,158,483930,,,,False,,,,,,,,,
,image-cpt,159,486081,,,,False,,,,,,,,,
363.0,image-cpt,160,489730,,,32,True,,,,,,,,,
,image-cpt,161,492880,,,,False,,,,,,,,,
411.0,image-cpt,162,495530,,,32,True,,,,,,,,,
,image-cpt,163,498680,,,,False,,,,,,,,,
436.0,image-cpt,164,500815,,,32,True,,,,,,,,,
,image-cpt,165,502946,,,,False,,,,,,,,,
,image-cpt,166,506096,,,,False,,,,,,,,,
,image-cpt,167,509746,,,,False,,,,,,,,,
,image-cpt,168,513396,,,,False,,,,,,,,,
504.0,image-cpt,169,515546,,,32,True,,,,,,,,,
,image-cpt,170,519195,,,,False,,,,,,,,,
,image-cpt,171,521345,,,,False,,,,,,,,,
474.0,image-cpt,172,523496,,,32,True,,,,,,,,,
,image-cpt,173,527146,,,,False,,,,,,,,,
,image-cpt,174,529796,,,,False,,,,,,,,,
,image-cpt,175,532945,,,,False,,,,,,,,,
362.0,image-cpt,176,536595,,,32,True,,,,,,,,,
,image-cpt,177,540245,,,,False,,,,,,,,,
,image-cpt,178,543395,,,,False,,,,,,,,,
,image-cpt,179,546544,,,,False,,,,,,,,,
,image-cpt,180,548678,,,,False,,,,,,,,,
389.0,image-cpt,181,552327,,,32,True,,,,,,,,,
,image-cpt,182,554477,,,,False,,,,,,,,,
,image-cpt,183,556627,,,,False,,,,,,,,,
425.0,image-cpt,184,558777,,,32,True,,,,,,,,,
,image-cpt,185,562427,,,,False,,,,,,,,,
,image-cpt,186,565077,,,,False,,,,,,,,,
423.0,image-cpt,187,568227,,,32,True,,,,,,,,,
441.0,image-cpt,188,571377,,,32,True,,,,,,,,,
,image-cpt,189,575026,,,,False,,,,,,,,,
,image-cpt,190,577676,,,,False,,,,,,,,,
,image-cpt,191,580826,,,,False,,,,,,,,,
466.0,image-cpt,192,582977,,,32,True,,,,,,,,,
491.0,image-cpt,193,586626,,,32,True,,,,,,,,,
585.0,image-cpt,194,589776,,,32,True,,,,,,,,,
,image-cpt,195,591911,,,,False,,,,,,,,,
389.0,image-cpt,196,594559,,,32,True,,,,,,,,,
,image-cpt,197,598209,,,,False,,,,,,,,,
506.0,image-cpt,198,600343,,,32,True,,,,,,,,,
,image-cpt,199,603493,,,,False,,,,,,,,,
,image-cpt,200,607142,,,,False,,,,,,,,,
,image-cpt,201,610792,,,,False,,,,,,,,,
,image-cpt,202,614442,,,,False,,,,,,,,,
482.0,image-cpt,203,618091,,,32,True,,,,,,,,,
,image-cpt,204,620742,,,,False,,,,,,,,,
,image-cpt,205,623891,,,,False,,,,,,,,,
,image-cpt,206,626541,,,,False,,,,,,,,,
622.0,image-cpt,207,629691,,,32,True,,,,,,,,,
,image-cpt,208,631841,,,,False,,,,,,,,,
,image-cpt,209,635490,,,,False,,,,,,,,,
457.0,image-cpt,210,639141,,,32,True,,,,,,,,,
423.0,image-cpt,211,641774,,,32,True,,,,,,,,,
,image-cpt,212,644923,,,,False,,,,,,,,,
,image-cpt,213,647573,,,,False,,,,,,,,,
358.0,image-cpt,214,650224,,,32,True,,,,,,,,,
,image-cpt,215,652373,,,,True,,,,,,,,,
,image-cpt,216,656007,,,,False,,,,,,,,,
,image-cpt,217,659657,,,,False,,,,,,,,,
611.0,image-cpt,218,662791,,,32,True,,,,,,,,,
,image-cpt,219,664939,,,,False,,,,,,,,,
,image-cpt,220,667089,,,,False,,,,,,,,,
,image-cpt,221,670239,,,,False,,,,,,,,,
,image-cpt,222,673372,,,,False,,,,,,,,,
,image-cpt,223,675523,,,,False,,,,,,,,,
,image-cpt,224,677672,,,,False,,,,,,,,,
,image-cpt,225,679807,,,,False,,,,,,,,,
,image-cpt,226,681938,,,,False,,,,,,,,,
,image-cpt,227,685589,,,,False,,,,,,,,,
,image-cpt,228,689222,,,,False,,,,,,,,,
,image-cpt,229,691871,,,,False,,,,,,,,,
460.0,image-cpt,230,694521,,,32,True,,,,,,,,,
,image-cpt,231,697655,,,,False,,,,,,,,,
,image-cpt,232,700805,,,,False,,,,,,,,,
,image-cpt,233,702954,,,,False,,,,,,,,,
,image-cpt,234,706604,,,,False,,,,,,,,,
,image-cpt,235,708754,,,,False,,,,,,,,,
393.0,image-cpt,236,711404,,,32,True,,,,,,,,,
,image-cpt,237,712421,,,,False,,,,,,,,,
423.0,image-cpt,238,714571,,,32,True,,,,,,,,,
,image-cpt,239,717221,,,,False,,,,,,,,,
,image-cpt,240,720370,,,,False,,,,,,,,,
457.0,image-cpt,241,722521,,,32,True,,,,,,,,,
,image-cpt,242,725170,,,,False,,,,,,,,,
,image-cpt,243,728820,,,,False,,,,,,,,,
391.0,image-cpt,244,731470,,,32,True,,,,,,,,,
,image-cpt,245,734620,,,,False,,,,,,,,,
477.0,image-cpt,246,737267,,,32,True,,,,,,,,,
,image-cpt,247,739917,,,,False,,,,,,,,,
,image-cpt,248,742067,,,,False,,,,,,,,,
,image-cpt,249,745717,,,,False,,,,,,,,,
,image-cpt,250,747866,,,,False,,,,,,,,,
,image-cpt,251,751017,,,,False,,,,,,,,,
,image-cpt,252,754166,,,,False,,,,,,,,,
561.0,image-cpt,253,756817,,,32,True,,,,,,,,,
536.0,image-cpt,254,760466,,,32,True,,,,,,,,,
534.0,image-cpt,255,763100,,,32,True,,,,,,,,,
,image-cpt,256,766249,,,,False,,,,,,,,,
,image-cpt,257,769399,,,,False,,,,,,,,,
,image-cpt,258,772549,,,,False,,,,,,,,,
388.0,image-cpt,259,774699,,,32,True,,,,,,,,,
,image-cpt,260,777832,,,,False,,,,,,,,,
,image-cpt,261,780982,,,,False,,,,,,,,,
403.0,image-cpt,262,784631,,,32,True,,,,,,,,,
529.0,image-cpt,263,788282,,,32,True,,,,,,,,,
,image-cpt,264,790431,,,,False,,,,,,,,,
473.0,image-cpt,265,793082,,,32,True,,,,,,,,,
415.0,image-cpt,266,796234,,,32,True,,,,,,,,,
402.0,image-cpt,267,798384,,,32,True,,,,,,,,,
,image-cpt,268,800533,,,,False,,,,,,,,,
438.0,image-cpt,269,804183,,,32,True,,,,,,,,,
404.0,image-cpt,270,807316,,,32,True,,,,,,,,,
,image-cpt,271,810951,,,,False,,,,,,,,,
,image-cpt,272,813100,,,,False,,,,,,,,,
,image-cpt,273,815750,,,,False,,,,,,,,,
,image-cpt,274,818899,,,,False,,,,,,,,,
,image-cpt,275,821549,,,,False,,,,,,,,,
,image-cpt,276,824699,,,,False,,,,,,,,,
576.0,image-cpt,277,828349,,,32,True,,,,,,,,,
351.0,image-cpt,278,830499,,,32,True,,,,,,,,,
,image-cpt,279,833148,,,,False,,,,,,,,,
,image-cpt,280,836299,,,,False,,,,,,,,,
,image-cpt,281,839448,,,,False,,,,,,,,,
,image-cpt,282,842582,,,,False,,,,,,,,,
,image-cpt,283,844731,,,,False,,,,,,,,,
,image-cpt,284,847382,,,,False,,,,,,,,,
,image-cpt,285,849532,,,,False,,,,,,,,,
,image-cpt,286,852682,,,,False,,,,,,,,,
,image-cpt,287,855331,,,,False,,,,,,,,,
,image-cpt,288,857981,,,,False,,,,,,,,,
,image-cpt,289,861615,,,,False,,,,,,,,,
,image-cpt,290,864764,,,,False,,,,,,,,,
,image-cpt,291,868398,,,,False,,,,,,,,,
,image-cpt,292,871547,,,,False,,,,,,,,,
,image-cpt,293,875197,,,,False,,,,,,,,,
,image-cpt,294,877847,,,,False,,,,,,,,,
484.0,image-cpt,295,879997,,,32,True,,,,,,,,,
,image-cpt,296,881030,,,,False,,,,,,,,,
,image-cpt,297,884180,,,,False,,,,,,,,,
,image-cpt,298,887830,,,,False,,,,,,,,,
,image-cpt,299,891480,,,,False,,,,,,,,,
,image-cpt,300,895130,,,,False,,,,,,,,,
,image-cpt,301,897279,,,,False,,,,,,,,,
491.0,image-cpt,302,900929,,,32,True,,,,,,,,,
,image-cpt,303,903579,,,,False,,,,,,,,,
,image-cpt,304,907229,,,,False,,,,,,,,,
,image-cpt,305,910379,,,,False,,,,,,,,,
,image-cpt,306,914029,,,,False,,,,,,,,,
,image-cpt,307,917179,,,,False,,,,,,,,,
,image-cpt,308,919328,,,,False,,,,,,,,,
,image-cpt,309,921463,,,,False,,,,,,,,,
,image-cpt,310,924112,,,,False,,,,,,,,,
571.0,image-cpt,311,926762,,,32,True,,,,,,,,,
514.0,image-cpt,312,930411,,,32,True,,,,,,,,,
,image-cpt,313,932561,,,,False,,,,,,,,,
346.0,image-cpt,314,934711,,,32,False,,,,,,,,,
,image-cpt,315,937861,,,,False,,,,,,,,,
518.0,image-cpt,316,940494,,,32,True,,,,,,,,,
,image-cpt,317,943144,,,,False,,,,,,,,,
,image-cpt,318,945279,,,,False,,,,,,,,,
525.0,image-cpt,319,947427,,,32,True,,,,,,,,,
,image-cpt,320,950077,,,,False,,,,,,,,,
,image-cpt,321,952727,,,,False,,,,,,,,,
,image-cpt,322,955877,,,,False,,,,,,,,,
,image-cpt,323,959027,,,,False,,,,,,,,,
472.0,image-cpt,324,961177,,,32,True,,,,,,,,,
563.0,image-cpt,325,964826,,,32,True,,,,,,,,,
497.0,image-cpt,326,968477,,,32,True,,,,,,,,,
,image-cpt,327,971626,,,,False,,,,,,,,,
,image-cpt,328,973776,,,,False,,,,,,,,,
491.0,image-cpt,329,976426,,,32,True,,,,,,,,,
481.0,image-cpt,330,979077,,,32,True,,,,,,,,,
,image-cpt,331,981711,,,,False,,,,,,,,,
476.0,image-cpt,332,984860,,,32,True,,,,,,,,,
321.0,image-cpt,333,987510,,,32,True,,,,,,,,,
,image-cpt,334,990143,,,,False,,,,,,,,,
,image-cpt,335,993792,,,,False,,,,,,,,,
,image-cpt,336,996942,,,,False,,,,,,,,,
,image-cpt,337,999092,,,,False,,,,,,,,,
439.0,image-cpt,338,1002742,,,32,True,,,,,,,,,
487.0,image-cpt,339,1005375,,,32,True,,,,,,,,,
,image-cpt,340,1009025,,,,False,,,,,,,,,
,image-cpt,341,1012675,,,,False,,,,,,,,,
46625.0,instructions,342,1059300,,,,,,,,,,,,,
-1.0,bRMS,343,1069639,,,-1,,images/rms/f42887_e_001.jpg,training,1.0,400.0,False,False,0.0,63.0,63.0
1950.4000000059605,bRMS,344,1072383,,,Q,,images/rms/f42887_e_001.jpg,training,1.0,400.0,False,True,0.0,63.0,63.0
1168.2000000029802,bRMS,345,1074335,,,Q,,images/rms/f42887_e_001.jpg,training,0.0,400.0,False,False,0.0,63.0,63.0
615.5,bRMS,346,1075735,,,P,,images/rms/f42887_e_001.jpg,training,0.0,400.0,False,True,0.0,63.0,63.0
2173.79999999702,bRMS,347,1078688,,,Q,,images/rms/f42887_e_001.jpg,training,1.0,400.0,False,True,0.0,63.0,63.0
1047.699999988079,bRMS,348,1080519,,,P,,images/rms/f42887_e_001.jpg,training,0.0,400.0,False,True,0.0,63.0,63.0
702.5999999940395,bRMS,349,1081999,,,Q,,images/rms/f42887_e_001.jpg,training,1.0,400.0,False,True,0.0,63.0,63.0
965.5999999940396,bRMS,350,1083735,,,Q,,images/rms/f42887_e_001.jpg,training,1.0,400.0,False,True,0.0,63.0,63.0
1759.7000000029802,bRMS,351,1086287,,,P,,images/rms/f42887_e_001.jpg,training,1.0,400.0,False,False,0.0,63.0,63.0
1430.2999999970198,bRMS,352,1088504,,,Q,,images/rms/f42887_e_001.jpg,training,1.0,400.0,False,True,0.0,63.0,63.0
2510.39999999106,bRMS,353,1091799,,,Q,,images/rms/f42887_e_001.jpg,training,0.0,400.0,False,False,0.0,63.0,63.0
885.4000000059605,bRMS,354,1093471,,,Q,,images/rms/f42887_e_001.jpg,training,1.0,400.0,False,True,0.0,63.0,63.0
726.2000000029802,bRMS,355,1094983,,,Q,,images/rms/f42887_e_001.jpg,training,1.0,400.0,False,True,0.0,63.0,63.0
1741.0,bRMS,356,1097503,,,P,,images/rms/f42887_e_001.jpg,training,0.0,400.0,False,True,0.0,63.0,63.0
502.0,bRMS,357,1098783,,,Q,,images/rms/f42887_e_001.jpg,training,1.0,400.0,False,True,0.0,63.0,63.0
1590.800000011921,bRMS,358,1101151,,,Q,,images/rms/f42887_e_001.jpg,training,1.0,400.0,False,True,0.0,63.0,63.0
40881.0,instructions,359,1142444,,,,,,,,,,,,,
741.7999999970198,bRMS,360,1143568,,,P,,images/rms/f42887_e_001.jpg,training,0.0,400.0,False,True,0.0,63.0,63.0
969.1000000089408,bRMS,361,1145320,,,P,,images/rms/f42887_e_001.jpg,training,0.0,400.0,False,True,0.0,63.0,63.0
686.4000000059605,bRMS,362,1146784,,,Q,,images/rms/f42887_e_001.jpg,training,1.0,400.0,False,True,0.0,63.0,63.0
550.9000000059605,bRMS,363,1148112,,,Q,,images/rms/f42887_e_001.jpg,training,1.0,400.0,False,True,0.0,63.0,63.0
1469.5,bRMS,364,1150368,,,Q,,images/rms/f42887_e_001.jpg,training,1.0,400.0,False,True,0.0,63.0,63.0
838.9000000059605,bRMS,365,1151984,,,P,,images/rms/f42887_e_001.jpg,training,0.0,400.0,False,True,0.0,63.0,63.0
759.9000000059605,bRMS,366,1153521,,,P,,images/rms/f42887_e_001.jpg,training,0.0,400.0,False,True,0.0,63.0,63.0
885.8000000119209,bRMS,367,1155183,,,Q,,images/rms/f42887_e_001.jpg,training,1.0,400.0,False,True,0.0,63.0,63.0
1062.5999999940395,bRMS,368,1157031,,,Q,,images/rms/f42887_e_001.jpg,training,1.0,400.0,False,True,0.0,63.0,63.0
637.5,bRMS,369,1158448,,,P,,images/rms/f42887_e_001.jpg,training,0.0,400.0,False,True,0.0,63.0,63.0
710.2000000029802,bRMS,370,1159935,,,P,,images/rms/f42887_e_001.jpg,training,0.0,400.0,False,True,0.0,63.0,63.0
550.2999999970198,bRMS,371,1161271,,,P,,images/rms/f42887_e_001.jpg,training,0.0,400.0,False,True,0.0,63.0,63.0
981.5999999940396,bRMS,372,1163032,,,P,,images/rms/f42887_e_001.jpg,training,0.0,400.0,False,True,0.0,63.0,63.0
768.2000000029802,bRMS,373,1164583,,,P,,images/rms/f42887_e_001.jpg,training,0.0,400.0,False,True,0.0,63.0,63.0
1375.5999999940395,bRMS,374,1166751,,,P,,images/rms/f42887_e_001.jpg,training,0.0,400.0,False,True,0.0,63.0,63.0
1385.2000000029802,bRMS,375,1168919,,,Q,,images/rms/f42887_e_001.jpg,training,1.0,400.0,False,True,0.0,63.0,63.0
3622.0,instructions,376,1172964,,,,,,,,,,,,,
1050.9000000059605,bRMS,377,1174383,,,P,,images/rms/f42887_e_156.jpg,main,0.0,400.0,False,True,0.0,63.0,63.0
565.2000000029802,bRMS,378,1175736,,,Q,,images/rms/f42887_e_015.jpg,main,1.0,400.0,False,True,0.0,63.0,63.0
544.2000000029802,bRMS,379,1177068,,,P,,images/rms/f42887_e_295.jpg,main,0.0,400.0,False,True,0.0,63.0,63.0
558.2000000029802,bRMS,380,1178399,,,P,,images/rms/f42887_e_028.jpg,main,0.0,400.0,False,True,0.0,63.0,63.0
390.8000000119209,bRMS,381,1179567,,,P,,images/rms/f42887_e_072.jpg,main,0.0,400.0,False,True,0.0,63.0,63.0
696.4000000059605,bRMS,382,1181064,,,Q,,images/rms/f42887_e_127.jpg,main,1.0,400.0,False,True,0.0,63.0,63.0
494.40000000596046,bRMS,383,1182343,,,Q,,images/rms/f42887_e_289.jpg,main,1.0,400.0,False,True,0.0,63.0,63.0
842.9000000059605,bRMS,384,1183983,,,Q,,images/rms/f42887_e_278_1.jpg,reversed,1.0,400.0,False,True,0.0,63.0,63.0
600.6000000089407,bRMS,385,1185359,,,Q,,images/rms/f42887_e_180_1.jpg,reversed,1.0,400.0,False,True,0.0,63.0,63.0
826.2999999970198,bRMS,386,1186968,,,Q,,images/rms/f42887_e_258_1.jpg,reversed,1.0,400.0,False,True,0.0,63.0,63.0
2334.9000000059605,bRMS,387,1190079,,,Q,,images/rms/f42887_e_103.jpg,main,1.0,400.0,False,True,0.0,63.0,63.0
1716.9000000059605,bRMS,388,1192575,,,Q,,images/rms/f42887_e_289_1.jpg,reversed,1.0,400.0,False,True,0.0,63.0,63.0
1037.7000000029802,bRMS,389,1194399,,,P,,images/rms/f42887_e_001.jpg,main,0.0,400.0,False,True,0.0,63.0,63.0
679.4000000059605,bRMS,390,1195851,,,Q,,images/rms/f42887_e_015_1.jpg,reversed,1.0,400.0,False,True,0.0,63.0,63.0
958.2000000029802,bRMS,391,1197583,,,Q,,images/rms/f42887_e_202_1.jpg,reversed,1.0,400.0,False,True,0.0,63.0,63.0
1542.800000011921,bRMS,392,1199896,,,Q,,images/rms/f42887_e_252_1.jpg,reversed,1.0,400.0,False,True,0.0,63.0,63.0
535.0,bRMS,393,1201208,,,Q,,images/rms/f42887_e_245.jpg,main,1.0,400.0,False,True,0.0,63.0,63.0
1047.5999999940395,bRMS,394,1203047,,,P,,images/rms/f42887_e_127_1.jpg,reversed,0.0,400.0,False,True,0.0,63.0,63.0
557.4000000059605,bRMS,395,1204384,,,P,,images/rms/f42887_e_297.jpg,main,0.0,400.0,False,True,0.0,63.0,63.0
581.5999999940395,bRMS,396,1205750,,,Q,,images/rms/f42887_e_028_1.jpg,reversed,1.0,400.0,False,True,0.0,63.0,63.0
672.5,bRMS,397,1207231,,,P,,images/rms/f42887_e_058_1.jpg,reversed,0.0,400.0,False,True,0.0,63.0,63.0
582.4000000059605,bRMS,398,1208591,,,P,,images/rms/f42887_e_258.jpg,main,0.0,400.0,False,True,0.0,63.0,63.0
529.5,bRMS,399,1209895,,,Q,,images/rms/f42887_e_161.jpg,main,1.0,400.0,False,True,0.0,63.0,63.0
1151.4000000059605,bRMS,400,1211823,,,Q,,images/rms/f42887_e_241_1.jpg,reversed,1.0,400.0,False,True,0.0,63.0,63.0
509.29999999701977,bRMS,401,1213112,,,P,,images/rms/f42887_e_259.jpg,main,0.0,400.0,False,True,0.0,63.0,63.0
545.1000000089407,bRMS,402,1214431,,,Q,,images/rms/f42887_e_297_1.jpg,reversed,1.0,400.0,False,True,0.0,63.0,63.0
1543.2999999970198,bRMS,403,1216743,,,Q,,images/rms/f42887_e_293.jpg,main,1.0,400.0,False,True,0.0,63.0,63.0
646.2000000029802,bRMS,404,1218175,,,P,,images/rms/f42887_e_098_1.jpg,reversed,0.0,400.0,False,True,0.0,63.0,63.0
976.5999999940396,bRMS,405,1219933,,,P,,images/rms/f42887_e_064.jpg,main,0.0,400.0,False,True,0.0,63.0,63.0
615.0,bRMS,406,1221327,,,Q,,images/rms/f42887_e_103_1.jpg,reversed,1.0,400.0,False,True,0.0,63.0,63.0
550.0,bRMS,407,1222655,,,Q,,images/rms/f42887_e_140.jpg,main,1.0,400.0,False,True,0.0,63.0,63.0
990.4000000059604,bRMS,408,1224416,,,P,,images/rms/f42887_e_156_1.jpg,reversed,0.0,400.0,False,True,0.0,63.0,63.0
533.8000000119209,bRMS,409,1225727,,,Q,,images/rms/f42887_e_005_1.jpg,reversed,1.0,400.0,False,True,0.0,63.0,63.0
983.5999999940396,bRMS,410,1227496,,,Q,,images/rms/f42887_e_293_1.jpg,reversed,1.0,400.0,False,True,0.0,63.0,63.0
846.2000000029802,bRMS,411,1229111,,,Q,,images/rms/f42887_e_058.jpg,main,1.0,400.0,False,True,0.0,63.0,63.0
1406.5,bRMS,412,1231295,,,Q,,images/rms/f42887_e_098.jpg,main,1.0,400.0,False,True,0.0,63.0,63.0
742.5,bRMS,413,1232823,,,Q,,images/rms/f42887_e_252.jpg,main,1.0,400.0,False,True,0.0,63.0,63.0
551.2999999970198,bRMS,414,1234144,,,Q,,images/rms/f42887_e_001_1.jpg,reversed,1.0,400.0,False,True,0.0,63.0,63.0
494.29999999701977,bRMS,415,1235415,,,P,,images/rms/f42887_e_121.jpg,main,0.0,400.0,False,True,0.0,63.0,63.0
464.5,bRMS,416,1236663,,,Q,,images/rms/f42887_e_245_1.jpg,reversed,1.0,400.0,False,True,0.0,63.0,63.0
445.7000000029802,bRMS,417,1237882,,,P,,images/rms/f42887_e_025_1.jpg,reversed,0.0,400.0,False,True,0.0,63.0,63.0
1134.0999999940395,bRMS,418,1239800,,,Q,,images/rms/f42887_e_259_1.jpg,reversed,1.0,400.0,False,True,0.0,63.0,63.0
815.5,bRMS,419,1241416,,,P,,images/rms/f42887_e_296_1.jpg,reversed,0.0,400.0,False,True,0.0,63.0,63.0
478.40000000596046,bRMS,420,1242679,,,Q,,images/rms/f42887_e_064_1.jpg,reversed,1.0,400.0,False,True,0.0,63.0,63.0
383.2000000029802,bRMS,421,1243839,,,P,,images/rms/f42887_e_072_1.jpg,reversed,0.0,400.0,False,True,0.0,63.0,63.0
1021.5,bRMS,422,1245663,,,P,,images/rms/f42887_e_278.jpg,main,0.0,400.0,False,True,0.0,63.0,63.0
1125.5999999940395,bRMS,423,1247560,,,P,,images/rms/f42887_e_296.jpg,main,0.0,400.0,False,True,0.0,63.0,63.0
791.0,bRMS,424,1249128,,,Q,,images/rms/f42887_e_241.jpg,main,1.0,400.0,False,True,0.0,63.0,63.0
573.9000000059605,bRMS,425,1250479,,,Q,,images/rms/f42887_e_298_1.jpg,reversed,1.0,400.0,False,True,0.0,63.0,63.0
1220.800000011921,bRMS,426,1252480,,,Q,,images/rms/f42887_e_295_1.jpg,reversed,1.0,400.0,False,True,0.0,63.0,63.0
552.5999999940395,bRMS,427,1253807,,,P,,images/rms/f42887_e_180.jpg,main,0.0,400.0,False,True,0.0,63.0,63.0
527.7000000029802,bRMS,428,1255112,,,Q,,images/rms/f42887_e_080_1.jpg,reversed,1.0,400.0,False,True,0.0,63.0,63.0
430.90000000596046,bRMS,429,1256319,,,Q,,images/rms/f42887_e_025.jpg,main,1.0,400.0,False,True,0.0,63.0,63.0
670.5999999940395,bRMS,430,1257775,,,Q,,images/rms/f42887_e_005.jpg,main,1.0,400.0,False,True,0.0,63.0,63.0
624.0,bRMS,431,1259191,,,Q,,images/rms/f42887_e_053_1.jpg,reversed,1.0,400.0,False,True,0.0,63.0,63.0
503.59999999403954,bRMS,432,1260479,,,P,,images/rms/f42887_e_298.jpg,main,0.0,400.0,False,True,0.0,63.0,63.0
1256.4000000059605,bRMS,433,1262512,,,Q,,images/rms/f42887_e_053.jpg,main,1.0,400.0,False,True,0.0,63.0,63.0
680.7000000029802,bRMS,434,1263975,,,Q,,images/rms/f42887_e_121_1.jpg,reversed,1.0,400.0,False,True,0.0,63.0,63.0
526.0999999940395,bRMS,435,1265279,,,P,,images/rms/f42887_e_080.jpg,main,0.0,400.0,False,True,0.0,63.0,63.0
647.0,bRMS,436,1266704,,,Q,,images/rms/f42887_e_140_1.jpg,reversed,1.0,400.0,False,True,0.0,63.0,63.0
462.8000000119209,bRMS,437,1267943,,,P,,images/rms/f42887_e_202.jpg,main,0.0,400.0,False,True,0.0,63.0,63.0
542.9000000059605,bRMS,438,1269263,,,Q,,images/rms/f42887_e_161_1.jpg,reversed,1.0,400.0,False,True,0.0,63.0,63.0
16795.0,instructions,439,1286468,,,,,,,,,,,,,
804.2000000029802,bRMS,440,1287647,,,P,,images/rms/f42887_e_156.jpg,control_main,0.0,400.0,False,True,0.0,63.0,63.0
693.8999999910593,bRMS,441,1289127,,,Q,,images/rms/f42887_e_005.jpg,control_main,1.0,400.0,False,True,0.0,63.0,63.0
1168.4000000059605,bRMS,442,1291079,,,Q,,images/rms/f42887_e_297.jpg,control_main,1.0,400.0,False,True,0.0,63.0,63.0
623.1000000089407,bRMS,443,1292480,,,Q,,images/rms/f42887_e_289_1.jpg,control_reversed,1.0,400.0,False,True,0.0,63.0,63.0
1429.7000000029802,bRMS,444,1294688,,,P,,images/rms/f42887_e_297_1.jpg,control_reversed,1.0,400.0,False,False,0.0,63.0,63.0
1103.5999999940395,bRMS,445,1296575,,,P,,images/rms/f42887_e_072_1.jpg,control_reversed,0.0,400.0,False,True,0.0,63.0,63.0
615.2000000029802,bRMS,446,1297967,,,Q,,images/rms/f42887_e_161.jpg,control_main,1.0,400.0,False,True,0.0,63.0,63.0
608.2999999970198,bRMS,447,1299359,,,Q,,images/rms/f42887_e_058.jpg,control_main,1.0,400.0,False,True,0.0,63.0,63.0
662.4000000059605,bRMS,448,1300794,,,Q,,images/rms/f42887_e_202.jpg,control_main,1.0,400.0,False,True,0.0,63.0,63.0
542.0,bRMS,449,1302103,,,P,,images/rms/f42887_e_103.jpg,control_main,0.0,400.0,False,True,0.0,63.0,63.0
581.4000000059605,bRMS,450,1303472,,,Q,,images/rms/f42887_e_001_1.jpg,control_reversed,1.0,400.0,False,True,0.0,63.0,63.0
657.5,bRMS,451,1304927,,,Q,,images/rms/f42887_e_015_1.jpg,control_reversed,1.0,400.0,False,True,0.0,63.0,63.0
742.4000000059605,bRMS,452,1306440,,,Q,,images/rms/f42887_e_028.jpg,control_main,1.0,400.0,False,True,0.0,63.0,63.0
4255.09999999404,bRMS,453,1311471,,,Q,,images/rms/f42887_e_103_1.jpg,control_reversed,1.0,400.0,False,True,0.0,63.0,63.0
889.7999999970198,bRMS,454,1313151,,,Q,,images/rms/f42887_e_127_1.jpg,control_reversed,1.0,400.0,False,True,0.0,63.0,63.0
735.8000000119209,bRMS,455,1314656,,,P,,images/rms/f42887_e_289.jpg,control_main,0.0,400.0,False,True,0.0,63.0,63.0
2752.89999999106,bRMS,456,1318191,,,P,,images/rms/f42887_e_278_1.jpg,control_reversed,0.0,400.0,False,True,0.0,63.0,63.0
740.7000000029802,bRMS,457,1319729,,,Q,,images/rms/f42887_e_058_1.jpg,control_reversed,1.0,400.0,False,True,0.0,63.0,63.0
522.6999999880791,bRMS,458,1321023,,,Q,,images/rms/f42887_e_098.jpg,control_main,1.0,400.0,False,True,0.0,63.0,63.0
430.3999999910593,bRMS,459,1322239,,,Q,,images/rms/f42887_e_001.jpg,control_main,1.0,400.0,False,True,0.0,63.0,63.0
1944.0,bRMS,460,1324959,,,Q,,images/rms/f42887_e_140.jpg,control_main,1.0,400.0,False,True,0.0,63.0,63.0
474.6999999880791,bRMS,461,1326223,,,Q,,images/rms/f42887_e_298.jpg,control_main,1.0,400.0,False,True,0.0,63.0,63.0
529.5999999940395,bRMS,462,1327535,,,P,,images/rms/f42887_e_121.jpg,control_main,0.0,400.0,False,True,0.0,63.0,63.0
1197.0,bRMS,463,1329519,,,P,,images/rms/f42887_e_295.jpg,control_main,0.0,400.0,False,True,0.0,63.0,63.0
556.2000000029802,bRMS,464,1330856,,,P,,images/rms/f42887_e_241_1.jpg,control_reversed,0.0,400.0,False,True,0.0,63.0,63.0
1862.800000011921,bRMS,465,1333503,,,P,,images/rms/f42887_e_296.jpg,control_main,0.0,400.0,False,True,0.0,63.0,63.0
1549.2000000029802,bRMS,466,1335839,,,P,,images/rms/f42887_e_259_1.jpg,control_reversed,0.0,400.0,False,True,0.0,63.0,63.0
855.2000000029802,bRMS,467,1337471,,,P,,images/rms/f42887_e_028_1.jpg,control_reversed,0.0,400.0,False,True,0.0,63.0,63.0
1039.0,bRMS,468,1339288,,,Q,,images/rms/f42887_e_298_1.jpg,control_reversed,1.0,400.0,False,True,0.0,63.0,63.0
630.5,bRMS,469,1340703,,,P,,images/rms/f42887_e_080.jpg,control_main,0.0,400.0,False,True,0.0,63.0,63.0
590.0999999940395,bRMS,470,1342078,,,Q,,images/rms/f42887_e_293.jpg,control_main,1.0,400.0,False,True,0.0,63.0,63.0
982.3999999910592,bRMS,471,1343838,,,P,,images/rms/f42887_e_140_1.jpg,control_reversed,0.0,400.0,False,True,0.0,63.0,63.0
550.7000000029802,bRMS,472,1345167,,,Q,,images/rms/f42887_e_156_1.jpg,control_reversed,1.0,400.0,False,True,0.0,63.0,63.0
494.5,bRMS,473,1346439,,,P,,images/rms/f42887_e_252_1.jpg,control_reversed,0.0,400.0,False,True,0.0,63.0,63.0
509.79999999701977,bRMS,474,1347718,,,P,,images/rms/f42887_e_258.jpg,control_main,0.0,400.0,False,True,0.0,63.0,63.0
1526.7999999970198,bRMS,475,1350026,,,P,,images/rms/f42887_e_015.jpg,control_main,0.0,400.0,False,True,0.0,63.0,63.0
670.7999999970198,bRMS,476,1351471,,,Q,,images/rms/f42887_e_072.jpg,control_main,1.0,400.0,False,True,0.0,63.0,63.0
804.9000000059605,bRMS,477,1353071,,,Q,,images/rms/f42887_e_180.jpg,control_main,1.0,400.0,False,True,0.0,63.0,63.0
502.5,bRMS,478,1354351,,,P,,images/rms/f42887_e_180_1.jpg,control_reversed,0.0,400.0,False,True,0.0,63.0,63.0
446.40000000596046,bRMS,479,1355591,,,Q,,images/rms/f42887_e_202_1.jpg,control_reversed,1.0,400.0,False,True,0.0,63.0,63.0
717.9000000059605,bRMS,480,1357087,,,P,,images/rms/f42887_e_080_1.jpg,control_reversed,0.0,400.0,False,True,0.0,63.0,63.0
551.5999999940395,bRMS,481,1358415,,,Q,,images/rms/f42887_e_278.jpg,control_main,1.0,400.0,False,True,0.0,63.0,63.0
512.4000000059605,bRMS,482,1359719,,,P,,images/rms/f42887_e_245_1.jpg,control_reversed,0.0,400.0,False,True,0.0,63.0,63.0
534.4000000059605,bRMS,483,1361039,,,P,,images/rms/f42887_e_127.jpg,control_main,0.0,400.0,False,True,0.0,63.0,63.0
614.7999999970198,bRMS,484,1362425,,,P,,images/rms/f42887_e_121_1.jpg,control_reversed,0.0,400.0,False,True,0.0,63.0,63.0
573.7000000029802,bRMS,485,1363790,,,P,,images/rms/f42887_e_064.jpg,control_main,0.0,400.0,False,True,0.0,63.0,63.0
665.0,bRMS,486,1365232,,,Q,,images/rms/f42887_e_293_1.jpg,control_reversed,1.0,400.0,False,True,0.0,63.0,63.0
1005.6000000089408,bRMS,487,1367040,,,Q,,images/rms/f42887_e_053_1.jpg,control_reversed,1.0,400.0,False,True,0.0,63.0,63.0
630.5,bRMS,488,1368438,,,Q,,images/rms/f42887_e_161_1.jpg,control_reversed,1.0,400.0,False,True,0.0,63.0,63.0
701.5999999940395,bRMS,489,1369919,,,P,,images/rms/f42887_e_296_1.jpg,control_reversed,0.0,400.0,False,True,0.0,63.0,63.0
511.40000000596046,bRMS,490,1371211,,,Q,,images/rms/f42887_e_252.jpg,control_main,1.0,400.0,False,True,0.0,63.0,63.0
478.59999999403954,bRMS,491,1372471,,,P,,images/rms/f42887_e_259.jpg,control_main,0.0,400.0,False,True,0.0,63.0,63.0
2511.89999999106,bRMS,492,1375759,,,Q,,images/rms/f42887_e_295_1.jpg,control_reversed,1.0,400.0,False,True,0.0,63.0,63.0
3046.20000000298,bRMS,493,1379576,,,P,,images/rms/f42887_e_241.jpg,control_main,0.0,400.0,False,True,0.0,63.0,63.0
783.7999999970198,bRMS,494,1381135,,,Q,,images/rms/f42887_e_258_1.jpg,control_reversed,1.0,400.0,False,True,0.0,63.0,63.0
490.40000000596046,bRMS,495,1382399,,,P,,images/rms/f42887_e_064_1.jpg,control_reversed,0.0,400.0,False,True,0.0,63.0,63.0
526.2000000029802,bRMS,496,1383703,,,P,,images/rms/f42887_e_098_1.jpg,control_reversed,0.0,400.0,False,True,0.0,63.0,63.0
2252.29999999702,bRMS,497,1386735,,,Q,,images/rms/f42887_e_245.jpg,control_main,1.0,400.0,False,True,0.0,63.0,63.0
502.6000000089407,bRMS,498,1388015,,,P,,images/rms/f42887_e_025.jpg,control_main,0.0,400.0,False,True,0.0,63.0,63.0
797.9000000059605,bRMS,499,1389607,,,Q,,images/rms/f42887_e_005_1.jpg,control_reversed,1.0,400.0,False,True,0.0,63.0,63.0
2320.39999999106,bRMS,500,1392704,,,Q,,images/rms/f42887_e_025_1.jpg,control_reversed,1.0,400.0,False,True,0.0,63.0,63.0
1228.7999999970198,bRMS,501,1394719,,,Q,,images/rms/f42887_e_053.jpg,control_main,1.0,400.0,False,True,0.0,63.0,63.0
3774.0,instructions,502,1398908,,,,,,,,,,,,,
18791.0,survey-likert,503,1417701,"{""Q0"":1,""Q1"":2,""Q2"":1}",ASRS_2_6,,,,,,,,,,,
21847.0,survey-likert,504,1439549,"{""Q0"":1,""Q1"":2,""Q2"":2}",ASRS_2_0,,,,,,,,,,,
24824.0,survey-likert,505,1464373,"{""Q0"":1,""Q1"":2,""Q2"":0}",ASRS_1_3,,,,,,,,,,,
17304.0,survey-likert,506,1481677,"{""Q0"":1,""Q1"":1,""Q2"":0}",ASRS_2_3,,,,,,,,,,,
15368.0,survey-likert,507,1497045,"{""Q0"":2,""Q1"":1,""Q2"":1}",ASRS_2_9,,,,,,,,,,,
13400.0,survey-likert,508,1510445,"{""Q0"":1,""Q1"":1,""Q2"":1}",ASRS_1_0,,,,,,,,,,,
5544.0,survey-likert,509,1515989,"{""Q0"":3}",LAST_1,,,,,,,,,,,
3879.0,survey-multi-choice,510,1519869,"{""Q0"":""לא""}",,,,,,,,,,,,
1287.0,survey-text,511,1521157,"{""Q0"":""""}",,,,,,,,,,,,
4871.0,survey-likert,512,1526029,"{""Q0"":4}",LAST_4,,,,,,,,,,,
3022.0,survey-multi-choice,513,1529053,"{""Q0"":""לא""}",,,,,,,,,,,,
1079.0,survey-text,514,1530133,"{""Q0"":""""}",,,,,,,,,,,,
5727.0,survey-likert,515,1535861,"{""Q0"":5}",DRIVE_1,,,,,,,,,,,
12775.0,survey-text,516,1548637,"{""Q0"":""0""}",,,,,,,,,,,,
6095.0,survey-text,517,1554733,"{""Q0"":""0""}",,,,,,,,,,,,
1455.0,instructions,518,1556189,,,,,,,,,,,,,
