rt,trial_type,trial_index,time_elapsed,responses,name,stimulus,stimulus_block,stimulus_side,key_press,time_post_trial,is_fullscreen,correct,trial_began,block,sub_block,is_stimulus
59432.0,instructions,0,59434,,,,,,,,,,,,,
13501.0,survey-multi-choice,1,72937,"{""Q0"":""אישה"",""Q1"":""ימין"",""Q2"":""ערבית""}",,,,,,,,,,,,
33375.0,survey-text,2,106312,"{""Q0"":""19"",""Q1"":""2""}",,,,,,,,,,,,
19528.0,survey-multi-choice,3,125842,"{""Q0"":""לא""}",,,,,,,,,,,,
23791.0,survey-likert,4,149634,"{""Q0"":6}",attention_2,,,,,,,,,,,
114751.0,instructions,5,264385,,,,,,,,,,,,,
3036.70000000298,bRMS,6,267820,,,images/rms/f42887_e_001.jpg,training,0.0,P,400.0,False,True,0.0,63.0,63.0,
1000.4000000059604,bRMS,7,269596,,,images/rms/f42887_e_001.jpg,training,0.0,P,400.0,False,True,0.0,63.0,63.0,
1022.60000000149,bRMS,8,271397,,,images/rms/f42887_e_001.jpg,training,1.0,Q,400.0,False,True,0.0,63.0,63.0,
966.7000000029802,bRMS,9,273141,,,images/rms/f42887_e_001.jpg,training,0.0,P,400.0,False,True,0.0,63.0,63.0,
1504.3000000044703,bRMS,10,275429,,,images/rms/f42887_e_001.jpg,training,1.0,Q,400.0,False,True,0.0,63.0,63.0,
678.0,bRMS,11,276900,,,images/rms/f42887_e_001.jpg,training,0.0,P,400.0,False,True,0.0,63.0,63.0,
1351.0,bRMS,12,279028,,,images/rms/f42887_e_001.jpg,training,0.0,P,400.0,False,True,0.0,63.0,63.0,
901.39999999851,bRMS,13,280716,,,images/rms/f42887_e_001.jpg,training,0.0,P,400.0,False,True,0.0,63.0,63.0,
749.1000000014901,bRMS,14,282260,,,images/rms/f42887_e_001.jpg,training,1.0,Q,400.0,False,True,0.0,63.0,63.0,
1688.5,bRMS,15,284733,,,images/rms/f42887_e_001.jpg,training,1.0,Q,400.0,False,True,0.0,63.0,63.0,
1054.60000000149,bRMS,16,286581,,,images/rms/f42887_e_001.jpg,training,1.0,Q,400.0,False,True,0.0,63.0,63.0,
663.6000000014901,bRMS,17,288028,,,images/rms/f42887_e_001.jpg,training,1.0,Q,400.0,False,True,0.0,63.0,63.0,
701.7000000029802,bRMS,18,289516,,,images/rms/f42887_e_001.jpg,training,1.0,Q,400.0,False,True,0.0,63.0,63.0,
685.3000000044703,bRMS,19,290981,,,images/rms/f42887_e_001.jpg,training,1.0,Q,400.0,False,True,0.0,63.0,63.0,
742.3999999985099,bRMS,20,292500,,,images/rms/f42887_e_001.jpg,training,0.0,P,400.0,False,True,0.0,63.0,63.0,
630.8999999985099,bRMS,21,293916,,,images/rms/f42887_e_001.jpg,training,0.0,P,400.0,False,True,0.0,63.0,63.0,
3607.0,instructions,22,297946,,,,,,,,,,,,,
3263.8000000044703,bRMS,23,301572,,,images/rms/f42887_e_241_1.jpg,reversed,1.0,Q,400.0,False,True,0.0,63.0,63.0,
1727.0,bRMS,24,304079,,,images/rms/f42887_e_127_1.jpg,reversed,1.0,Q,400.0,False,True,0.0,63.0,63.0,
1870.60000000149,bRMS,25,306725,,,images/rms/f42887_e_015.jpg,main,1.0,Q,400.0,False,True,0.0,63.0,63.0,
998.60000000149,bRMS,26,308492,,,images/rms/f42887_e_053_1.jpg,reversed,1.0,Q,400.0,False,True,0.0,63.0,63.0,
582.0,bRMS,27,309861,,,images/rms/f42887_e_180_1.jpg,reversed,0.0,P,400.0,False,True,0.0,63.0,63.0,
601.2999999970198,bRMS,28,311244,,,images/rms/f42887_e_098_1.jpg,reversed,1.0,Q,400.0,False,True,0.0,63.0,63.0,
993.39999999851,bRMS,29,313014,,,images/rms/f42887_e_245.jpg,main,0.0,P,400.0,False,True,0.0,63.0,63.0,
629.2000000029802,bRMS,30,314428,,,images/rms/f42887_e_156_1.jpg,reversed,0.0,P,400.0,False,True,0.0,63.0,63.0,
670.6999999955297,bRMS,31,315892,,,images/rms/f42887_e_161.jpg,main,0.0,P,400.0,False,True,0.0,63.0,63.0,
1300.10000000149,bRMS,32,317972,,,images/rms/f42887_e_140_1.jpg,reversed,1.0,Q,400.0,False,True,0.0,63.0,63.0,
3438.20000000298,bRMS,33,322197,,,images/rms/f42887_e_121_1.jpg,reversed,1.0,Q,400.0,False,True,0.0,63.0,63.0,
563.7000000029802,bRMS,34,323540,,,images/rms/f42887_e_121.jpg,main,1.0,Q,400.0,False,True,0.0,63.0,63.0,
648.0,bRMS,35,324964,,,images/rms/f42887_e_278_1.jpg,reversed,1.0,Q,400.0,False,True,0.0,63.0,63.0,
582.8999999985099,bRMS,36,326324,,,images/rms/f42887_e_296_1.jpg,reversed,1.0,Q,400.0,False,True,0.0,63.0,63.0,
614.4000000059605,bRMS,37,327712,,,images/rms/f42887_e_278.jpg,main,1.0,Q,400.0,False,True,0.0,63.0,63.0,
1104.7999999970198,bRMS,38,329589,,,images/rms/f42887_e_001_1.jpg,reversed,0.0,P,400.0,False,True,0.0,63.0,63.0,
512.2000000029802,bRMS,39,330892,,,images/rms/f42887_e_072_1.jpg,reversed,0.0,P,400.0,False,True,0.0,63.0,63.0,
687.3000000044703,bRMS,40,332356,,,images/rms/f42887_e_025_1.jpg,reversed,0.0,P,400.0,False,True,0.0,63.0,63.0,
1421.39999999851,bRMS,41,334563,,,images/rms/f42887_e_098.jpg,main,0.0,P,400.0,False,True,0.0,63.0,63.0,
1655.2000000029802,bRMS,42,337012,,,images/rms/f42887_e_103.jpg,main,1.0,Q,400.0,False,True,0.0,63.0,63.0,
1142.2000000029802,bRMS,43,338928,,,images/rms/f42887_e_072.jpg,main,1.0,Q,400.0,False,True,0.0,63.0,63.0,
541.7000000029802,bRMS,44,340244,,,images/rms/f42887_e_058.jpg,main,0.0,P,400.0,False,True,0.0,63.0,63.0,
568.5,bRMS,45,341589,,,images/rms/f42887_e_293.jpg,main,0.0,P,400.0,False,True,0.0,63.0,63.0,
928.2000000029802,bRMS,46,343277,,,images/rms/f42887_e_140.jpg,main,0.0,P,400.0,False,True,0.0,63.0,63.0,
1058.10000000149,bRMS,47,345108,,,images/rms/f42887_e_297.jpg,main,1.0,Q,400.0,False,True,0.0,63.0,63.0,
584.2999999970198,bRMS,48,346464,,,images/rms/f42887_e_258_1.jpg,reversed,0.0,P,400.0,False,True,0.0,63.0,63.0,
848.6000000014901,bRMS,49,348084,,,images/rms/f42887_e_252_1.jpg,reversed,1.0,Q,400.0,False,True,0.0,63.0,63.0,
606.6000000014901,bRMS,50,349477,,,images/rms/f42887_e_028.jpg,main,1.0,Q,400.0,False,True,0.0,63.0,63.0,
503.7000000029802,bRMS,51,350756,,,images/rms/f42887_e_064.jpg,main,1.0,Q,400.0,False,True,0.0,63.0,63.0,
511.3999999985099,bRMS,52,352053,,,images/rms/f42887_e_180.jpg,main,0.0,P,400.0,False,True,0.0,63.0,63.0,
990.7000000029802,bRMS,53,353829,,,images/rms/f42887_e_293_1.jpg,reversed,0.0,P,400.0,False,True,0.0,63.0,63.0,
488.8000000044704,bRMS,54,355092,,,images/rms/f42887_e_241.jpg,main,1.0,Q,400.0,False,True,0.0,63.0,63.0,
599.6999999955297,bRMS,55,356460,,,images/rms/f42887_e_058_1.jpg,reversed,1.0,Q,400.0,False,True,0.0,63.0,63.0,
605.5,bRMS,56,357845,,,images/rms/f42887_e_025.jpg,main,0.0,P,400.0,False,True,0.0,63.0,63.0,
662.2000000029802,bRMS,57,359292,,,images/rms/f42887_e_080.jpg,main,0.0,P,400.0,False,True,0.0,63.0,63.0,
685.8999999985099,bRMS,58,360745,,,images/rms/f42887_e_252.jpg,main,1.0,Q,400.0,False,True,0.0,63.0,63.0,
543.5,bRMS,59,362068,,,images/rms/f42887_e_295_1.jpg,reversed,0.0,P,400.0,False,True,0.0,63.0,63.0,
589.5,bRMS,60,363428,,,images/rms/f42887_e_103_1.jpg,reversed,1.0,Q,400.0,False,True,0.0,63.0,63.0,
680.2999999970198,bRMS,61,364900,,,images/rms/f42887_e_258.jpg,main,1.0,Q,400.0,False,True,0.0,63.0,63.0,
528.8000000044703,bRMS,62,366212,,,images/rms/f42887_e_202_1.jpg,reversed,0.0,P,400.0,False,True,0.0,63.0,63.0,
486.0,bRMS,63,367476,,,images/rms/f42887_e_005.jpg,main,1.0,Q,400.0,False,True,0.0,63.0,63.0,
567.3999999985099,bRMS,64,368829,,,images/rms/f42887_e_295.jpg,main,0.0,P,400.0,False,True,0.0,63.0,63.0,
558.7000000029802,bRMS,65,370173,,,images/rms/f42887_e_297_1.jpg,reversed,0.0,P,400.0,False,True,0.0,63.0,63.0,
695.2999999970198,bRMS,66,371645,,,images/rms/f42887_e_080_1.jpg,reversed,1.0,Q,400.0,False,True,0.0,63.0,63.0,
880.8000000044703,bRMS,67,373300,,,images/rms/f42887_e_001.jpg,main,1.0,Q,400.0,False,True,0.0,63.0,63.0,
528.8000000044703,bRMS,68,374612,,,images/rms/f42887_e_156.jpg,main,1.0,Q,400.0,False,True,0.0,63.0,63.0,
597.7000000029802,bRMS,69,375988,,,images/rms/f42887_e_161_1.jpg,reversed,0.0,P,400.0,False,True,0.0,63.0,63.0,
1509.60000000149,bRMS,70,378278,,,images/rms/f42887_e_259_1.jpg,reversed,1.0,Q,400.0,False,True,0.0,63.0,63.0,
661.3999999985099,bRMS,71,379716,,,images/rms/f42887_e_127.jpg,main,0.0,P,400.0,False,True,0.0,63.0,63.0,
769.3999999985099,bRMS,72,381268,,,images/rms/f42887_e_028_1.jpg,reversed,1.0,Q,400.0,False,True,0.0,63.0,63.0,
1020.8000000044703,bRMS,73,383076,,,images/rms/f42887_e_296.jpg,main,0.0,P,400.0,False,True,0.0,63.0,63.0,
648.2000000029802,bRMS,74,384492,,,images/rms/f42887_e_289.jpg,main,0.0,P,400.0,False,True,0.0,63.0,63.0,
914.0,bRMS,75,386176,,,images/rms/f42887_e_015_1.jpg,reversed,1.0,Q,400.0,False,True,0.0,63.0,63.0,
1664.7000000029802,bRMS,76,388611,,,images/rms/f42887_e_053.jpg,main,1.0,Q,400.0,False,True,0.0,63.0,63.0,
1560.2000000029802,bRMS,77,390948,,,images/rms/f42887_e_202.jpg,main,1.0,Q,400.0,False,True,0.0,63.0,63.0,
526.2000000029802,bRMS,78,392260,,,images/rms/f42887_e_298_1.jpg,reversed,0.0,P,400.0,False,True,0.0,63.0,63.0,
1014.2000000029802,bRMS,79,394052,,,images/rms/f42887_e_064_1.jpg,reversed,0.0,P,400.0,False,True,0.0,63.0,63.0,
542.1000000014901,bRMS,80,395376,,,images/rms/f42887_e_245_1.jpg,reversed,1.0,Q,400.0,False,True,0.0,63.0,63.0,
1039.10000000149,bRMS,81,397188,,,images/rms/f42887_e_005_1.jpg,reversed,0.0,P,400.0,False,True,0.0,63.0,63.0,
1359.5999999940395,bRMS,82,399324,,,images/rms/f42887_e_298.jpg,main,0.0,P,400.0,False,True,0.0,63.0,63.0,
1853.5,bRMS,83,401957,,,images/rms/f42887_e_259.jpg,main,1.0,Q,400.0,False,True,0.0,63.0,63.0,
582.3999999985099,bRMS,84,403324,,,images/rms/f42887_e_289_1.jpg,reversed,0.0,P,400.0,False,True,0.0,63.0,63.0,
27497.0,instructions,85,431234,,,,,,,,,,,,,
,image-cpt,86,433860,,,,,,,,,,,,,False
,image-cpt,87,437495,,,,,,,,,,,,,False
331.0,image-cpt,88,440613,,,,,,32,,,,,,,True
349.0,image-cpt,89,442724,,,,,,32,,,,,,,True
,image-cpt,90,445860,,,,,,,,,,,,,False
,image-cpt,91,448987,,,,,,,,,,,,,False
,image-cpt,92,451125,,,,,,,,,,,,,False
,image-cpt,93,454760,,,,,,,,,,,,,False
313.0,image-cpt,94,458409,,,,,,32,,,,,,,False
,image-cpt,95,460558,,,,,,,,,,,,,False
452.0,image-cpt,96,464192,,,,,,32,,,,,,,True
,image-cpt,97,465208,,,,,,,,,,,,,False
442.0,image-cpt,98,467858,,,,,,32,,,,,,,False
,image-cpt,99,470009,,,,,,,,,,,,,False
328.0,image-cpt,100,473143,,,,,,32,,,,,,,True
4563.0,instructions,101,477706,,,,,,,,,,,,,
,image-cpt,102,481340,,,,,,,,,,,,,False
,image-cpt,103,483490,,,,,,,,,,,,,False
336.0,image-cpt,104,487139,,,,,,32,,,,,,,True
301.0,image-cpt,105,490774,,,,,,32,,,,,,,True
300.0,image-cpt,106,493423,,,,,,32,,,,,,,False
387.0,image-cpt,107,497073,,,,,,32,,,,,,,True
289.0,image-cpt,108,500222,,,,,,32,,,,,,,True
419.0,image-cpt,109,503356,,,,,,32,,,,,,,False
,image-cpt,110,506505,,,,,,,,,,,,,False
,image-cpt,111,510156,,,,,,,,,,,,,False
,image-cpt,112,512805,,,,,,,,,,,,,False
,image-cpt,113,516455,,,,,,,,,,,,,False
362.0,image-cpt,114,518605,,,,,,32,,,,,,,True
307.0,image-cpt,115,522255,,,,,,32,,,,,,,True
,image-cpt,116,524905,,,,,,,,,,,,,False
,image-cpt,117,527054,,,,,,,,,,,,,False
,image-cpt,118,529704,,,,,,,,,,,,,False
,image-cpt,119,532854,,,,,,,,,,,,,False
,image-cpt,120,536504,,,,,,,,,,,,,False
,image-cpt,121,539654,,,,,,,,,,,,,False
,image-cpt,122,541787,,,,,,,,,,,,,False
,image-cpt,123,544437,,,,,,,,,,,,,False
,image-cpt,124,548086,,,,,,,,,,,,,False
,image-cpt,125,550737,,,,,,,,,,,,,False
,image-cpt,126,554387,,,,,,,,,,,,,False
,image-cpt,127,557037,,,,,,,,,,,,,False
388.0,image-cpt,128,559186,,,,,,32,,,,,,,True
319.0,image-cpt,129,562337,,,,,,32,,,,,,,True
,image-cpt,130,565486,,,,,,,,,,,,,False
,image-cpt,131,569136,,,,,,,,,,,,,False
,image-cpt,132,572786,,,,,,,,,,,,,False
,image-cpt,133,575421,,,,,,,,,,,,,False
,image-cpt,134,579069,,,,,,,,,,,,,False
,image-cpt,135,582219,,,,,,,,,,,,,False
,image-cpt,136,585369,,,,,,,,,,,,,False
361.0,image-cpt,137,588519,,,,,,32,,,,,,,True
,image-cpt,138,591652,,,,,,,,,,,,,False
,image-cpt,139,594801,,,,,,,,,,,,,False
320.0,image-cpt,140,597435,,,,,,32,,,,,,,True
,image-cpt,141,599585,,,,,,,,,,,,,False
417.0,image-cpt,142,602235,,,,,,32,,,,,,,True
,image-cpt,143,604385,,,,,,,,,,,,,False
321.0,image-cpt,144,606535,,,,,,32,,,,,,,True
,image-cpt,145,610185,,,,,,,,,,,,,False
361.0,image-cpt,146,613833,,,,,,32,,,,,,,True
296.0,image-cpt,147,616468,,,,,,32,,,,,,,True
,image-cpt,148,618616,,,,,,,,,,,,,False
297.0,image-cpt,149,620766,,,,,,32,,,,,,,True
322.0,image-cpt,150,622900,,,,,,32,,,,,,,False
,image-cpt,151,625049,,,,,,,,,,,,,False
,image-cpt,152,628200,,,,,,,,,,,,,False
314.0,image-cpt,153,631349,,,,,,32,,,,,,,True
780.0,image-cpt,154,634484,,,,,,32,,,,,,,False
,image-cpt,155,636632,,,,,,,,,,,,,False
376.0,image-cpt,156,638782,,,,,,32,,,,,,,True
,image-cpt,157,639816,,,,,,,,,,,,,False
,image-cpt,158,641966,,,,,,,,,,,,,False
435.0,image-cpt,159,645616,,,,,,32,,,,,,,True
,image-cpt,160,648765,,,,,,,,,,,,,False
,image-cpt,161,651898,,,,,,,,,,,,,False
,image-cpt,162,654533,,,,,,,,,,,,,False
397.0,image-cpt,163,657182,,,,,,32,,,,,,,True
,image-cpt,164,660315,,,,,,,,,,,,,False
,image-cpt,165,663465,,,,,,,,,,,,,False
313.0,image-cpt,166,665615,,,,,,32,,,,,,,True
,image-cpt,167,669265,,,,,,,,,,,,,False
352.0,image-cpt,168,672915,,,,,,32,,,,,,,True
318.0,image-cpt,169,675064,,,,,,32,,,,,,,True
,image-cpt,170,677214,,,,,,,,,,,,,False
291.0,image-cpt,171,680348,,,,,,32,,,,,,,True
,image-cpt,172,683997,,,,,,,,,,,,,False
,image-cpt,173,687647,,,,,,,,,,,,,False
,image-cpt,174,689797,,,,,,,,,,,,,False
,image-cpt,175,692447,,,,,,,,,,,,,False
371.0,image-cpt,176,694597,,,,,,32,,,,,,,False
,image-cpt,177,697246,,,,,,,,,,,,,False
,image-cpt,178,699897,,,,,,,,,,,,,False
393.0,image-cpt,179,703046,,,,,,32,,,,,,,True
,image-cpt,180,705696,,,,,,,,,,,,,False
,image-cpt,181,708346,,,,,,,,,,,,,False
,image-cpt,182,710996,,,,,,,,,,,,,False
,image-cpt,183,714146,,,,,,,,,,,,,False
,image-cpt,184,717295,,,,,,,,,,,,,False
,image-cpt,185,719445,,,,,,,,,,,,,False
428.0,image-cpt,186,722096,,,,,,32,,,,,,,True
,image-cpt,187,725246,,,,,,,,,,,,,False
,image-cpt,188,728380,,,,,,,,,,,,,False
,image-cpt,189,732028,,,,,,,,,,,,,False
,image-cpt,190,735678,,,,,,,,,,,,,False
,image-cpt,191,738328,,,,,,,,,,,,,False
,image-cpt,192,740478,,,,,,,,,,,,,False
,image-cpt,193,744128,,,,,,,,,,,,,False
338.0,image-cpt,194,746278,,,,,,32,,,,,,,True
,image-cpt,195,748411,,,,,,,,,,,,,False
,image-cpt,196,751561,,,,,,,,,,,,,False
,image-cpt,197,754711,,,,,,,,,,,,,False
315.0,image-cpt,198,757360,,,,,,32,,,,,,,True
449.0,image-cpt,199,761010,,,,,,32,,,,,,,True
,image-cpt,200,764160,,,,,,,,,,,,,False
,image-cpt,201,767810,,,,,,,,,,,,,False
288.0,image-cpt,202,771443,,,,,,32,,,,,,,True
,image-cpt,203,773593,,,,,,,,,,,,,False
,image-cpt,204,777227,,,,,,,,,,,,,False
,image-cpt,205,780876,,,,,,,,,,,,,False
,image-cpt,206,784526,,,,,,,,,,,,,False
,image-cpt,207,787659,,,,,,,,,,,,,False
,image-cpt,208,788693,,,,,,,,,,,,,False
460.0,image-cpt,209,791343,,,,,,32,,,,,,,True
,image-cpt,210,794992,,,,,,,,,,,,,False
,image-cpt,211,798142,,,,,,,,,,,,,False
371.0,image-cpt,212,801792,,,,,,32,,,,,,,True
,image-cpt,213,804442,,,,,,,,,,,,,False
312.0,image-cpt,214,808075,,,,,,32,,,,,,,False
,image-cpt,215,811725,,,,,,,,,,,,,False
,image-cpt,216,813859,,,,,,,,,,,,,False
526.0,image-cpt,217,817008,,,,,,32,,,,,,,True
,image-cpt,218,820158,,,,,,,,,,,,,False
466.0,image-cpt,219,822291,,,,,,32,,,,,,,True
,image-cpt,220,825941,,,,,,,,,,,,,False
,image-cpt,221,829591,,,,,,,,,,,,,False
,image-cpt,222,831741,,,,,,,,,,,,,False
,image-cpt,223,833875,,,,,,,,,,,,,False
,image-cpt,224,837524,,,,,,,,,,,,,False
,image-cpt,225,840174,,,,,,,,,,,,,False
,image-cpt,226,843307,,,,,,,,,,,,,False
,image-cpt,227,846457,,,,,,,,,,,,,False
345.0,image-cpt,228,849106,,,,,,32,,,,,,,True
,image-cpt,229,852757,,,,,,,,,,,,,False
,image-cpt,230,855906,,,,,,,,,,,,,False
415.0,image-cpt,231,859056,,,,,,32,,,,,,,True
481.0,image-cpt,232,861206,,,,,,32,,,,,,,True
,image-cpt,233,863339,,,,,,,,,,,,,False
,image-cpt,234,865489,,,,,,,,,,,,,False
448.0,image-cpt,235,868124,,,,,,32,,,,,,,True
,image-cpt,236,870772,,,,,,,,,,,,,False
,image-cpt,237,873922,,,,,,,,,,,,,False
,image-cpt,238,876555,,,,,,,,,,,,,False
,image-cpt,239,880206,,,,,,,,,,,,,False
387.0,image-cpt,240,883855,,,,,,32,,,,,,,True
386.0,image-cpt,241,886005,,,,,,32,,,,,,,True
,image-cpt,242,888655,,,,,,,,,,,,,False
,image-cpt,243,891305,,,,,,,,,,,,,False
,image-cpt,244,893955,,,,,,,,,,,,,False
,image-cpt,245,897605,,,,,,,,,,,,,False
,image-cpt,246,900755,,,,,,,,,,,,,False
,image-cpt,247,904404,,,,,,,,,,,,,False
349.0,image-cpt,248,907054,,,,,,32,,,,,,,True
,image-cpt,249,909187,,,,,,,,,,,,,False
,image-cpt,250,911337,,,,,,,,,,,,,False
,image-cpt,251,913487,,,,,,,,,,,,,False
402.0,image-cpt,252,915638,,,,,,32,,,,,,,True
828.0,image-cpt,253,917771,,,,,,32,,,,,,,False
,image-cpt,254,919920,,,,,,,,,,,,,False
353.0,image-cpt,255,922071,,,,,,32,,,,,,,False
,image-cpt,256,924703,,,,,,,,,,,,,False
322.0,image-cpt,257,927853,,,,,,32,,,,,,,True
,image-cpt,258,929988,,,,,,,,,,,,,False
366.0,image-cpt,259,933137,,,,,,32,,,,,,,True
,image-cpt,260,935787,,,,,,,,,,,,,False
,image-cpt,261,938936,,,,,,,,,,,,,False
377.0,image-cpt,262,941086,,,,,,32,,,,,,,True
500.0,image-cpt,263,944219,,,,,,32,,,,,,,True
,image-cpt,264,946869,,,,,,,,,,,,,False
,image-cpt,265,950519,,,,,,,,,,,,,False
,image-cpt,266,953169,,,,,,,,,,,,,False
,image-cpt,267,956818,,,,,,,,,,,,,False
,image-cpt,268,959469,,,,,,,,,,,,,False
,image-cpt,269,962602,,,,,,,,,,,,,False
312.0,image-cpt,270,964751,,,,,,32,,,,,,,True
450.0,image-cpt,271,966901,,,,,,32,,,,,,,True
,image-cpt,272,970035,,,,,,,,,,,,,False
335.0,image-cpt,273,973185,,,,,,32,,,,,,,True
369.0,image-cpt,274,975835,,,,,,32,,,,,,,True
,image-cpt,275,977985,,,,,,,,,,,,,False
,image-cpt,276,981634,,,,,,,,,,,,,False
,image-cpt,277,984784,,,,,,,,,,,,,False
,image-cpt,278,987434,,,,,,,,,,,,,False
,image-cpt,279,989584,,,,,,,,,,,,,False
,image-cpt,280,991734,,,,,,,,,,,,,False
364.0,image-cpt,281,994867,,,,,,32,,,,,,,True
,image-cpt,282,998517,,,,,,,,,,,,,False
,image-cpt,283,1001167,,,,,,,,,,,,,False
,image-cpt,284,1003317,,,,,,,,,,,,,False
,image-cpt,285,1005966,,,,,,,,,,,,,False
,image-cpt,286,1008116,,,,,,,,,,,,,False
365.0,image-cpt,287,1011266,,,,,,32,,,,,,,True
,image-cpt,288,1014900,,,,,,,,,,,,,False
,image-cpt,289,1017550,,,,,,,,,,,,,False
356.0,image-cpt,290,1020199,,,,,,32,,,,,,,True
,image-cpt,291,1022849,,,,,,,,,,,,,False
,image-cpt,292,1025483,,,,,,,,,,,,,False
,image-cpt,293,1027632,,,,,,,,,,,,,False
353.0,image-cpt,294,1030782,,,,,,32,,,,,,,True
420.0,image-cpt,295,1034432,,,,,,32,,,,,,,True
,image-cpt,296,1038082,,,,,,,,,,,,,False
320.0,image-cpt,297,1041232,,,,,,32,,,,,,,True
,image-cpt,298,1044882,,,,,,,,,,,,,False
,image-cpt,299,1047515,,,,,,,,,,,,,False
,image-cpt,300,1050665,,,,,,,,,,,,,False
,image-cpt,301,1053315,,,,,,,,,,,,,False
351.0,image-cpt,302,1056965,,,,,,32,,,,,,,True
,image-cpt,303,1059615,,,,,,,,,,,,,False
370.0,image-cpt,304,1063265,,,,,,32,,,,,,,True
369.0,image-cpt,305,1065415,,,,,,32,,,,,,,True
,image-cpt,306,1068065,,,,,,,,,,,,,False
,image-cpt,307,1070714,,,,,,,,,,,,,False
424.0,image-cpt,308,1074348,,,,,,32,,,,,,,True
,image-cpt,309,1077497,,,,,,,,,,,,,False
,image-cpt,310,1081147,,,,,,,,,,,,,False
327.0,image-cpt,311,1083298,,,,,,32,,,,,,,True
,image-cpt,312,1085447,,,,,,,,,,,,,False
347.0,image-cpt,313,1089097,,,,,,32,,,,,,,True
,image-cpt,314,1091247,,,,,,,,,,,,,False
,image-cpt,315,1094381,,,,,,,,,,,,,False
,image-cpt,316,1097030,,,,,,,,,,,,,False
,image-cpt,317,1099680,,,,,,,,,,,,,False
,image-cpt,318,1102329,,,,,,,,,,,,,False
,image-cpt,319,1104479,,,,,,,,,,,,,False
370.0,image-cpt,320,1108112,,,,,,32,,,,,,,True
433.0,image-cpt,321,1110262,,,,,,32,,,,,,,True
,image-cpt,322,1113396,,,,,,,,,,,,,False
414.0,image-cpt,323,1116045,,,,,,32,,,,,,,True
340.0,image-cpt,324,1118695,,,,,,32,,,,,,,False
,image-cpt,325,1122345,,,,,,,,,,,,,False
297.0,image-cpt,326,1124995,,,,,,32,,,,,,,True
351.0,image-cpt,327,1127645,,,,,,32,,,,,,,False
,image-cpt,328,1131294,,,,,,,,,,,,,False
,image-cpt,329,1134944,,,,,,,,,,,,,False
,image-cpt,330,1138595,,,,,,,,,,,,,False
,image-cpt,331,1141244,,,,,,,,,,,,,False
,image-cpt,332,1143394,,,,,,,,,,,,,False
,image-cpt,333,1147027,,,,,,,,,,,,,False
414.0,image-cpt,334,1150177,,,,,,32,,,,,,,True
,image-cpt,335,1153327,,,,,,,,,,,,,False
,image-cpt,336,1156477,,,,,,,,,,,,,False
389.0,image-cpt,337,1159626,,,,,,32,,,,,,,True
,image-cpt,338,1163276,,,,,,,,,,,,,False
,image-cpt,339,1165926,,,,,,,,,,,,,False
427.0,image-cpt,340,1169060,,,,,,32,,,,,,,True
,image-cpt,341,1171710,,,,,,,,,,,,,False
,image-cpt,342,1174360,,,,,,,,,,,,,False
346.0,image-cpt,343,1177509,,,,,,32,,,,,,,True
,image-cpt,344,1179644,,,,,,,,,,,,,False
,image-cpt,345,1181793,,,,,,,,,,,,,False
,image-cpt,346,1184943,,,,,,,,,,,,,False
,image-cpt,347,1187592,,,,,,,,,,,,,False
345.0,image-cpt,348,1190242,,,,,,32,,,,,,,True
1328.0,image-cpt,349,1192392,,,,,,32,,,,,,,True
,image-cpt,350,1194542,,,,,,,,,,,,,False
,image-cpt,351,1197676,,,,,,,,,,,,,False
390.0,image-cpt,352,1200325,,,,,,32,,,,,,,True
,image-cpt,353,1202459,,,,,,,,,,,,,False
438.0,image-cpt,354,1205608,,,,,,32,,,,,,,True
361.0,image-cpt,355,1209258,,,,,,32,,,,,,,True
344.0,image-cpt,356,1212891,,,,,,32,,,,,,,True
407.0,image-cpt,357,1215041,,,,,,32,,,,,,,True
,image-cpt,358,1217675,,,,,,,,,,,,,False
,image-cpt,359,1220824,,,,,,,,,,,,,False
,image-cpt,360,1223474,,,,,,,,,,,,,False
,image-cpt,361,1227108,,,,,,,,,,,,,False
,image-cpt,362,1230757,,,,,,,,,,,,,False
301.0,image-cpt,363,1232907,,,,,,32,,,,,,,True
375.0,image-cpt,364,1236057,,,,,,32,,,,,,,False
425.0,image-cpt,365,1239707,,,,,,32,,,,,,,True
359.0,image-cpt,366,1241857,,,,,,32,,,,,,,True
,image-cpt,367,1245506,,,,,,,,,,,,,False
415.0,image-cpt,368,1247656,,,,,,32,,,,,,,True
,image-cpt,369,1250806,,,,,,,,,,,,,False
379.0,image-cpt,370,1253456,,,,,,32,,,,,,,True
370.0,image-cpt,371,1255606,,,,,,32,,,,,,,True
364.0,image-cpt,372,1257740,,,,,,32,,,,,,,True
278.0,image-cpt,373,1260389,,,,,,32,,,,,,,False
,image-cpt,374,1264039,,,,,,,,,,,,,False
,image-cpt,375,1267189,,,,,,,,,,,,,False
,image-cpt,376,1270839,,,,,,,,,,,,,False
,image-cpt,377,1274488,,,,,,,,,,,,,False
,image-cpt,378,1277638,,,,,,,,,,,,,False
,image-cpt,379,1279771,,,,,,,,,,,,,False
374.0,image-cpt,380,1282421,,,,,,32,,,,,,,True
,image-cpt,381,1285556,,,,,,,,,,,,,False
382.0,image-cpt,382,1289205,,,,,,32,,,,,,,True
,image-cpt,383,1292354,,,,,,,,,,,,,False
,image-cpt,384,1295004,,,,,,,,,,,,,False
,image-cpt,385,1298654,,,,,,,,,,,,,False
387.0,image-cpt,386,1300804,,,,,,32,,,,,,,True
,image-cpt,387,1302954,,,,,,,,,,,,,False
376.0,image-cpt,388,1306587,,,,,,32,,,,,,,True
,image-cpt,389,1308737,,,,,,,,,,,,,False
,image-cpt,390,1310887,,,,,,,,,,,,,False
379.0,image-cpt,391,1314037,,,,,,32,,,,,,,True
412.0,image-cpt,392,1316686,,,,,,32,,,,,,,True
323.0,image-cpt,393,1319336,,,,,,32,,,,,,,True
409.0,image-cpt,394,1321486,,,,,,32,,,,,,,True
,image-cpt,395,1323636,,,,,,,,,,,,,False
429.0,image-cpt,396,1327286,,,,,,32,,,,,,,True
,image-cpt,397,1330436,,,,,,,,,,,,,False
,image-cpt,398,1333586,,,,,,,,,,,,,False
351.0,image-cpt,399,1336221,,,,,,32,,,,,,,True
,image-cpt,400,1338869,,,,,,,,,,,,,False
,image-cpt,401,1341519,,,,,,,,,,,,,False
,image-cpt,402,1344669,,,,,,,,,,,,,False
,image-cpt,403,1348318,,,,,,,,,,,,,False
,image-cpt,404,1350968,,,,,,,,,,,,,False
,image-cpt,405,1353619,,,,,,,,,,,,,False
431.0,image-cpt,406,1357268,,,,,,32,,,,,,,True
,image-cpt,407,1360418,,,,,,,,,,,,,False
,image-cpt,408,1364052,,,,,,,,,,,,,False
,image-cpt,409,1367701,,,,,,,,,,,,,False
,image-cpt,410,1371351,,,,,,,,,,,,,False
,image-cpt,411,1373501,,,,,,,,,,,,,False
453.0,image-cpt,412,1376634,,,,,,32,,,,,,,True
,image-cpt,413,1379784,,,,,,,,,,,,,False
,image-cpt,414,1381934,,,,,,,,,,,,,False
482.0,image-cpt,415,1384565,,,,,,32,,,,,,,True
,image-cpt,416,1387700,,,,,,,,,,,,,False
,image-cpt,417,1390833,,,,,,,,,,,,,False
,image-cpt,418,1393963,,,,,,,,,,,,,False
,image-cpt,419,1396094,,,,,,,,,,,,,False
,image-cpt,420,1398733,,,,,,,,,,,,,False
,image-cpt,421,1400866,,,,,,,,,,,,,False
64536.0,instructions,422,1465402,,,,,,,,,,,,,
1915.70000000298,bRMS,423,1467680,,,images/rms/f42887_e_015_1.jpg,control_reversed,1.0,Q,400.0,False,True,0.0,63.0,63.0,
546.8999999985099,bRMS,424,1468996,,,images/rms/f42887_e_278.jpg,control_main,1.0,Q,400.0,False,True,0.0,63.0,63.0,
1081.89999999851,bRMS,425,1470860,,,images/rms/f42887_e_295.jpg,control_main,1.0,Q,400.0,False,True,0.0,63.0,63.0,
786.8000000044703,bRMS,426,1472428,,,images/rms/f42887_e_005.jpg,control_main,1.0,Q,400.0,False,True,0.0,63.0,63.0,
2719.0,bRMS,427,1475924,,,images/rms/f42887_e_202.jpg,control_main,0.0,P,400.0,False,True,0.0,63.0,63.0,
903.7000000029802,bRMS,428,1477604,,,images/rms/f42887_e_293.jpg,control_main,1.0,Q,400.0,False,True,0.0,63.0,63.0,
545.0,bRMS,429,1478924,,,images/rms/f42887_e_296_1.jpg,control_reversed,0.0,P,400.0,False,True,0.0,63.0,63.0,
839.1000000014901,bRMS,430,1480540,,,images/rms/f42887_e_298.jpg,control_main,0.0,P,400.0,False,True,0.0,63.0,63.0,
551.1000000014901,bRMS,431,1481876,,,images/rms/f42887_e_098.jpg,control_main,0.0,P,400.0,False,True,0.0,63.0,63.0,
633.0999999940395,bRMS,432,1483279,,,images/rms/f42887_e_156.jpg,control_main,1.0,Q,400.0,False,True,0.0,63.0,63.0,
544.8999999985099,bRMS,433,1484588,,,images/rms/f42887_e_053.jpg,control_main,1.0,Q,400.0,False,True,0.0,63.0,63.0,
1414.0,bRMS,434,1486789,,,images/rms/f42887_e_297.jpg,control_main,1.0,Q,400.0,False,True,0.0,63.0,63.0,
512.1000000014901,bRMS,435,1488076,,,images/rms/f42887_e_296.jpg,control_main,0.0,P,400.0,False,True,0.0,63.0,63.0,
528.8999999985099,bRMS,436,1489380,,,images/rms/f42887_e_072.jpg,control_main,0.0,P,400.0,False,True,0.0,63.0,63.0,
424.7000000029802,bRMS,437,1490580,,,images/rms/f42887_e_058_1.jpg,control_reversed,1.0,Q,400.0,False,True,0.0,63.0,63.0,
598.7999999970198,bRMS,438,1491956,,,images/rms/f42887_e_161_1.jpg,control_reversed,0.0,P,400.0,False,True,0.0,63.0,63.0,
983.4000000059604,bRMS,439,1493713,,,images/rms/f42887_e_058.jpg,control_main,0.0,P,400.0,False,True,0.0,63.0,63.0,
538.0,bRMS,440,1495028,,,images/rms/f42887_e_202_1.jpg,control_reversed,1.0,Q,400.0,False,True,0.0,63.0,63.0,
790.8999999985099,bRMS,441,1496595,,,images/rms/f42887_e_028_1.jpg,control_reversed,0.0,P,400.0,False,True,0.0,63.0,63.0,
920.3000000044703,bRMS,442,1498309,,,images/rms/f42887_e_103.jpg,control_main,0.0,P,400.0,False,True,0.0,63.0,63.0,
519.7000000029802,bRMS,443,1499605,,,images/rms/f42887_e_252.jpg,control_main,1.0,Q,400.0,False,True,0.0,63.0,63.0,
751.8000000044703,bRMS,444,1501141,,,images/rms/f42887_e_127_1.jpg,control_reversed,1.0,Q,400.0,False,True,0.0,63.0,63.0,
360.1000000014901,bRMS,445,1502276,,,images/rms/f42887_e_080_1.jpg,control_reversed,1.0,P,400.0,False,False,0.0,63.0,63.0,
693.7999999970198,bRMS,446,1503756,,,images/rms/f42887_e_258.jpg,control_main,0.0,P,400.0,False,True,0.0,63.0,63.0,
824.2000000029802,bRMS,447,1505372,,,images/rms/f42887_e_180.jpg,control_main,1.0,Q,400.0,False,True,0.0,63.0,63.0,
791.0,bRMS,448,1506940,,,images/rms/f42887_e_293_1.jpg,control_reversed,1.0,Q,400.0,False,True,0.0,63.0,63.0,
488.8999999985099,bRMS,449,1508212,,,images/rms/f42887_e_252_1.jpg,control_reversed,0.0,P,400.0,False,True,0.0,63.0,63.0,
533.7999999970198,bRMS,450,1509525,,,images/rms/f42887_e_001_1.jpg,control_reversed,1.0,Q,400.0,False,True,0.0,63.0,63.0,
536.2000000029802,bRMS,451,1510836,,,images/rms/f42887_e_156_1.jpg,control_reversed,0.0,P,400.0,False,True,0.0,63.0,63.0,
353.20000000298023,bRMS,452,1511961,,,images/rms/f42887_e_259.jpg,control_main,0.0,Q,400.0,False,False,0.0,63.0,63.0,
767.3999999985099,bRMS,453,1513508,,,images/rms/f42887_e_098_1.jpg,control_reversed,0.0,P,400.0,False,True,0.0,63.0,63.0,
487.8999999985099,bRMS,454,1514772,,,images/rms/f42887_e_245_1.jpg,control_reversed,0.0,P,400.0,False,True,0.0,63.0,63.0,
832.3999999985099,bRMS,455,1516388,,,images/rms/f42887_e_053_1.jpg,control_reversed,1.0,Q,400.0,False,True,0.0,63.0,63.0,
446.2000000029802,bRMS,456,1517620,,,images/rms/f42887_e_278_1.jpg,control_reversed,0.0,P,400.0,False,True,0.0,63.0,63.0,
445.5,bRMS,457,1518860,,,images/rms/f42887_e_121_1.jpg,control_reversed,1.0,Q,400.0,False,True,0.0,63.0,63.0,
500.19999999552965,bRMS,458,1520129,,,images/rms/f42887_e_289.jpg,control_main,1.0,P,400.0,False,False,0.0,63.0,63.0,
687.8999999985099,bRMS,459,1521597,,,images/rms/f42887_e_245.jpg,control_main,1.0,Q,400.0,False,True,0.0,63.0,63.0,
632.0,bRMS,460,1523029,,,images/rms/f42887_e_072_1.jpg,control_reversed,0.0,P,400.0,False,True,0.0,63.0,63.0,
488.0,bRMS,461,1524293,,,images/rms/f42887_e_297_1.jpg,control_reversed,1.0,Q,400.0,False,True,0.0,63.0,63.0,
520.5,bRMS,462,1525589,,,images/rms/f42887_e_140.jpg,control_main,0.0,P,400.0,False,True,0.0,63.0,63.0,
488.09999999403954,bRMS,463,1526853,,,images/rms/f42887_e_001.jpg,control_main,0.0,P,400.0,False,True,0.0,63.0,63.0,
431.0,bRMS,464,1528068,,,images/rms/f42887_e_258_1.jpg,control_reversed,0.0,P,400.0,False,True,0.0,63.0,63.0,
319.70000000298023,bRMS,465,1529172,,,images/rms/f42887_e_241.jpg,control_main,1.0,P,400.0,False,False,0.0,63.0,63.0,
1267.39999999851,bRMS,466,1531221,,,images/rms/f42887_e_005_1.jpg,control_reversed,0.0,P,400.0,False,True,0.0,63.0,63.0,
461.8999999985099,bRMS,467,1532468,,,images/rms/f42887_e_064_1.jpg,control_reversed,1.0,Q,400.0,False,True,0.0,63.0,63.0,
544.5,bRMS,468,1533794,,,images/rms/f42887_e_295_1.jpg,control_reversed,0.0,P,400.0,False,True,0.0,63.0,63.0,
447.2000000029802,bRMS,469,1535011,,,images/rms/f42887_e_103_1.jpg,control_reversed,1.0,Q,400.0,False,True,0.0,63.0,63.0,
312.79999999701977,bRMS,470,1536117,,,images/rms/f42887_e_259_1.jpg,control_reversed,0.0,P,400.0,False,True,0.0,63.0,63.0,
288.8999999985099,bRMS,471,1537188,,,images/rms/f42887_e_298_1.jpg,control_reversed,1.0,Q,400.0,False,True,0.0,63.0,63.0,
343.8999999985099,bRMS,472,1538324,,,images/rms/f42887_e_161.jpg,control_main,1.0,P,400.0,False,False,0.0,63.0,63.0,
552.1000000014901,bRMS,473,1539652,,,images/rms/f42887_e_064.jpg,control_main,1.0,Q,400.0,False,True,0.0,63.0,63.0,
303.5,bRMS,474,1540740,,,images/rms/f42887_e_241_1.jpg,control_reversed,0.0,P,400.0,False,True,0.0,63.0,63.0,
278.20000000298023,bRMS,475,1541793,,,images/rms/f42887_e_015.jpg,control_main,1.0,Q,400.0,False,True,0.0,63.0,63.0,
282.5,bRMS,476,1542852,,,images/rms/f42887_e_180_1.jpg,control_reversed,0.0,P,400.0,False,True,0.0,63.0,63.0,
462.5,bRMS,477,1544095,,,images/rms/f42887_e_127.jpg,control_main,1.0,Q,400.0,False,True,0.0,63.0,63.0,
303.5,bRMS,478,1545172,,,images/rms/f42887_e_025_1.jpg,control_reversed,1.0,P,400.0,False,False,0.0,63.0,63.0,
248.9000000059605,bRMS,479,1546188,,,images/rms/f42887_e_121.jpg,control_main,1.0,P,400.0,False,False,0.0,63.0,63.0,
504.1000000014901,bRMS,480,1547476,,,images/rms/f42887_e_140_1.jpg,control_reversed,0.0,P,400.0,False,True,0.0,63.0,63.0,
394.3000000044704,bRMS,481,1548643,,,images/rms/f42887_e_080.jpg,control_main,0.0,Q,400.0,False,False,0.0,63.0,63.0,
519.8000000044703,bRMS,482,1549940,,,images/rms/f42887_e_025.jpg,control_main,1.0,Q,400.0,False,True,0.0,63.0,63.0,
425.0,bRMS,483,1551140,,,images/rms/f42887_e_289_1.jpg,control_reversed,0.0,P,400.0,False,True,0.0,63.0,63.0,
696.8999999985099,bRMS,484,1552611,,,images/rms/f42887_e_028.jpg,control_main,0.0,P,400.0,False,True,0.0,63.0,63.0,
18792.0,instructions,485,1571811,,,,,,,,,,,,,
26416.0,survey-likert,486,1598227,"{""Q0"":2,""Q1"":1,""Q2"":3}",ASRS_2_3,,,,,,,,,,,
24350.0,survey-likert,487,1622579,"{""Q0"":4,""Q1"":2,""Q2"":1}",ASRS_1_3,,,,,,,,,,,
16311.0,survey-likert,488,1638891,"{""Q0"":2,""Q1"":2,""Q2"":2}",ASRS_2_0,,,,,,,,,,,
5791.0,survey-likert,489,1644683,"{""Q0"":2,""Q1"":1,""Q2"":2}",ASRS_1_0,,,,,,,,,,,
9079.0,survey-likert,490,1653763,"{""Q0"":2,""Q1"":3,""Q2"":2}",ASRS_2_9,,,,,,,,,,,
5664.0,survey-likert,491,1659427,"{""Q0"":2,""Q1"":2,""Q2"":2}",ASRS_2_6,,,,,,,,,,,
7111.0,survey-likert,492,1666538,"{""Q0"":4}",LAST_1,,,,,,,,,,,
12887.0,survey-multi-choice,493,1679426,"{""Q0"":""לא""}",,,,,,,,,,,,
2135.0,survey-text,494,1681562,"{""Q0"":""""}",,,,,,,,,,,,
8527.0,survey-likert,495,1690090,"{""Q0"":3}",LAST_4,,,,,,,,,,,
2047.0,survey-multi-choice,496,1692138,"{""Q0"":""לא""}",,,,,,,,,,,,
631.0,survey-text,497,1692770,"{""Q0"":""""}",,,,,,,,,,,,
17327.0,survey-likert,498,1710098,"{""Q0"":4}",DRIVE_1,,,,,,,,,,,
15775.0,survey-text,499,1725874,"{""Q0"":""0""}",,,,,,,,,,,,
13456.0,survey-text,500,1739331,"{""Q0"":""0\n""}",,,,,,,,,,,,
1056.0,instructions,501,1740387,,,,,,,,,,,,,
