rt,trial_type,trial_index,time_elapsed,responses,name,key_press,is_stimulus,stimulus,stimulus_block,stimulus_side,time_post_trial,is_fullscreen,correct,trial_began,block,sub_block
82407.0,instructions,0,82408,,,,,,,,,,,,,
5045.0,survey-multi-choice,1,87456,"{""Q0"":""אישה"",""Q1"":""ימין"",""Q2"":""עברית""}",,,,,,,,,,,,
7399.0,survey-text,2,94856,"{""Q0"":""26"",""Q1"":""10""}",,,,,,,,,,,,
2599.0,survey-multi-choice,3,97455,"{""Q0"":""לא""}",,,,,,,,,,,,
5447.0,survey-likert,4,102904,"{""Q0"":1}",attention_2,,,,,,,,,,,
11391.0,instructions,5,114295,,,,,,,,,,,,,
1183.0,image-cpt,6,116421,,,32,True,,,,,,,,,
482.0,image-cpt,7,119539,,,32,False,,,,,,,,,
579.0,image-cpt,8,123172,,,32,False,,,,,,,,,
387.0,image-cpt,9,125805,,,32,True,,,,,,,,,
,image-cpt,10,128454,,,,False,,,,,,,,,
,image-cpt,11,130603,,,,False,,,,,,,,,
,image-cpt,12,133738,,,,False,,,,,,,,,
,image-cpt,13,136387,,,,False,,,,,,,,,
,image-cpt,14,140035,,,,False,,,,,,,,,
,image-cpt,15,143167,,,,False,,,,,,,,,
,image-cpt,16,146817,,,,False,,,,,,,,,
691.0,image-cpt,17,149451,,,32,True,,,,,,,,,
696.0,image-cpt,18,153084,,,32,True,,,,,,,,,
,image-cpt,19,154116,,,,False,,,,,,,,,
,image-cpt,20,156266,,,,False,,,,,,,,,
4755.0,instructions,21,161021,,,,,,,,,,,,,
695.0,image-cpt,22,164164,,,32,True,,,,,,,,,
,image-cpt,23,166813,,,,False,,,,,,,,,
,image-cpt,24,168963,,,,False,,,,,,,,,
,image-cpt,25,171596,,,,False,,,,,,,,,
,image-cpt,26,174746,,,,False,,,,,,,,,
442.0,image-cpt,27,177396,,,32,True,,,,,,,,,
,image-cpt,28,179546,,,,False,,,,,,,,,
473.0,image-cpt,29,182196,,,32,True,,,,,,,,,
,image-cpt,30,185846,,,,False,,,,,,,,,
,image-cpt,31,187996,,,,False,,,,,,,,,
,image-cpt,32,190145,,,,False,,,,,,,,,
,image-cpt,33,192795,,,,False,,,,,,,,,
377.0,image-cpt,34,195945,,,32,True,,,,,,,,,
,image-cpt,35,198078,,,,False,,,,,,,,,
,image-cpt,36,200712,,,,False,,,,,,,,,
,image-cpt,37,203362,,,,False,,,,,,,,,
,image-cpt,38,206012,,,,False,,,,,,,,,
,image-cpt,39,208662,,,,False,,,,,,,,,
415.0,image-cpt,40,211311,,,32,True,,,,,,,,,
549.0,image-cpt,41,214961,,,32,True,,,,,,,,,
403.0,image-cpt,42,217611,,,32,True,,,,,,,,,
458.0,image-cpt,43,220261,,,32,True,,,,,,,,,
384.0,image-cpt,44,222911,,,32,True,,,,,,,,,
,image-cpt,45,226061,,,,False,,,,,,,,,
,image-cpt,46,229210,,,,False,,,,,,,,,
394.0,image-cpt,47,232860,,,32,True,,,,,,,,,
409.0,image-cpt,48,235010,,,32,True,,,,,,,,,
451.0,image-cpt,49,237143,,,32,False,,,,,,,,,
,image-cpt,50,239293,,,,False,,,,,,,,,
,image-cpt,51,242943,,,,False,,,,,,,,,
,image-cpt,52,246593,,,,False,,,,,,,,,
,image-cpt,53,250243,,,,False,,,,,,,,,
,image-cpt,54,253376,,,,False,,,,,,,,,
,image-cpt,55,256026,,,,False,,,,,,,,,
,image-cpt,56,259159,,,,False,,,,,,,,,
494.0,image-cpt,57,261809,,,32,True,,,,,,,,,
,image-cpt,58,263959,,,,False,,,,,,,,,
494.0,image-cpt,59,267592,,,32,True,,,,,,,,,
525.0,image-cpt,60,270742,,,32,True,,,,,,,,,
463.0,image-cpt,61,272892,,,32,False,,,,,,,,,
,image-cpt,62,275041,,,,False,,,,,,,,,
451.0,image-cpt,63,278691,,,32,True,,,,,,,,,
,image-cpt,64,282341,,,,False,,,,,,,,,
416.0,image-cpt,65,285974,,,32,False,,,,,,,,,
399.0,image-cpt,66,288124,,,32,True,,,,,,,,,
,image-cpt,67,290774,,,,False,,,,,,,,,
,image-cpt,68,292924,,,,False,,,,,,,,,
521.0,image-cpt,69,296074,,,32,True,,,,,,,,,
395.0,image-cpt,70,298707,,,32,True,,,,,,,,,
,image-cpt,71,301840,,,,False,,,,,,,,,
,image-cpt,72,304490,,,,False,,,,,,,,,
,image-cpt,73,308140,,,,False,,,,,,,,,
,image-cpt,74,310790,,,,False,,,,,,,,,
,image-cpt,75,313439,,,,False,,,,,,,,,
,image-cpt,76,316089,,,,False,,,,,,,,,
491.0,image-cpt,77,318739,,,32,True,,,,,,,,,
482.0,image-cpt,78,321389,,,32,True,,,,,,,,,
,image-cpt,79,324039,,,,False,,,,,,,,,
,image-cpt,80,326189,,,,False,,,,,,,,,
,image-cpt,81,329839,,,,False,,,,,,,,,
,image-cpt,82,332989,,,,False,,,,,,,,,
,image-cpt,83,336638,,,,False,,,,,,,,,
390.0,image-cpt,84,338788,,,32,True,,,,,,,,,
,image-cpt,85,340938,,,,False,,,,,,,,,
,image-cpt,86,344588,,,,False,,,,,,,,,
,image-cpt,87,346738,,,,False,,,,,,,,,
,image-cpt,88,349388,,,,False,,,,,,,,,
,image-cpt,89,353037,,,,False,,,,,,,,,
,image-cpt,90,355187,,,,False,,,,,,,,,
,image-cpt,91,357837,,,,False,,,,,,,,,
,image-cpt,92,361470,,,,False,,,,,,,,,
,image-cpt,93,362519,,,,False,,,,,,,,,
,image-cpt,94,366170,,,,False,,,,,,,,,
,image-cpt,95,369303,,,,False,,,,,,,,,
413.0,image-cpt,96,371453,,,32,True,,,,,,,,,
456.0,image-cpt,97,374086,,,32,True,,,,,,,,,
,image-cpt,98,377236,,,,False,,,,,,,,,
,image-cpt,99,380386,,,,False,,,,,,,,,
,image-cpt,100,384036,,,,False,,,,,,,,,
561.0,image-cpt,101,386185,,,32,True,,,,,,,,,
,image-cpt,102,387219,,,,False,,,,,,,,,
,image-cpt,103,390869,,,,False,,,,,,,,,
,image-cpt,104,393519,,,,False,,,,,,,,,
454.0,image-cpt,105,396668,,,32,True,,,,,,,,,
,image-cpt,106,398818,,,,False,,,,,,,,,
,image-cpt,107,402468,,,,False,,,,,,,,,
,image-cpt,108,404618,,,,False,,,,,,,,,
,image-cpt,109,407268,,,,False,,,,,,,,,
,image-cpt,110,409418,,,,False,,,,,,,,,
,image-cpt,111,412068,,,,False,,,,,,,,,
,image-cpt,112,414217,,,,False,,,,,,,,,
,image-cpt,113,417867,,,,False,,,,,,,,,
362.0,image-cpt,114,421017,,,32,True,,,,,,,,,
476.0,image-cpt,115,424150,,,32,True,,,,,,,,,
575.0,image-cpt,116,427783,,,32,True,,,,,,,,,
349.0,image-cpt,117,430933,,,32,False,,,,,,,,,
,image-cpt,118,433566,,,,False,,,,,,,,,
326.0,image-cpt,119,437199,,,32,True,,,,,,,,,
,image-cpt,120,439349,,,,False,,,,,,,,,
,image-cpt,121,442999,,,,False,,,,,,,,,
,image-cpt,122,446649,,,,False,,,,,,,,,
492.0,image-cpt,123,450299,,,32,True,,,,,,,,,
522.0,image-cpt,124,452949,,,32,True,,,,,,,,,
,image-cpt,125,455099,,,,False,,,,,,,,,
490.0,image-cpt,126,458232,,,32,False,,,,,,,,,
493.0,image-cpt,127,460382,,,32,True,,,,,,,,,
,image-cpt,128,463531,,,,False,,,,,,,,,
,image-cpt,129,465681,,,,False,,,,,,,,,
,image-cpt,130,469331,,,,False,,,,,,,,,
690.0,image-cpt,131,472481,,,32,True,,,,,,,,,
788.0,image-cpt,132,474614,,,32,True,,,,,,,,,
,image-cpt,133,476764,,,,False,,,,,,,,,
,image-cpt,134,478914,,,,False,,,,,,,,,
803.0,image-cpt,135,481564,,,32,True,,,,,,,,,
793.0,image-cpt,136,484214,,,32,True,,,,,,,,,
,image-cpt,137,487847,,,,False,,,,,,,,,
,image-cpt,138,490997,,,,False,,,,,,,,,
,image-cpt,139,493147,,,,False,,,,,,,,,
,image-cpt,140,496280,,,,False,,,,,,,,,
,image-cpt,141,499930,,,,False,,,,,,,,,
,image-cpt,142,503579,,,,False,,,,,,,,,
,image-cpt,143,506230,,,,False,,,,,,,,,
,image-cpt,144,508863,,,,False,,,,,,,,,
646.0,image-cpt,145,511013,,,32,True,,,,,,,,,
,image-cpt,146,514663,,,,False,,,,,,,,,
,image-cpt,147,518296,,,,False,,,,,,,,,
,image-cpt,148,521445,,,,False,,,,,,,,,
383.0,image-cpt,149,525079,,,32,True,,,,,,,,,
478.0,image-cpt,150,527229,,,32,True,,,,,,,,,
1096.0,image-cpt,151,529378,,,32,False,,,,,,,,,
,image-cpt,152,532512,,,,False,,,,,,,,,
,image-cpt,153,534661,,,,False,,,,,,,,,
,image-cpt,154,537811,,,,False,,,,,,,,,
369.0,image-cpt,155,540461,,,32,True,,,,,,,,,
,image-cpt,156,542611,,,,False,,,,,,,,,
,image-cpt,157,545261,,,,False,,,,,,,,,
409.0,image-cpt,158,547411,,,32,True,,,,,,,,,
,image-cpt,159,550061,,,,False,,,,,,,,,
,image-cpt,160,553211,,,,False,,,,,,,,,
,image-cpt,161,555860,,,,False,,,,,,,,,
,image-cpt,162,558010,,,,False,,,,,,,,,
,image-cpt,163,561144,,,,False,,,,,,,,,
,image-cpt,164,563793,,,,False,,,,,,,,,
,image-cpt,165,567443,,,,False,,,,,,,,,
,image-cpt,166,569593,,,,False,,,,,,,,,
,image-cpt,167,572243,,,,False,,,,,,,,,
,image-cpt,168,574892,,,,False,,,,,,,,,
,image-cpt,169,577042,,,,False,,,,,,,,,
,image-cpt,170,579692,,,,False,,,,,,,,,
,image-cpt,171,583342,,,,False,,,,,,,,,
,image-cpt,172,586975,,,,False,,,,,,,,,
,image-cpt,173,589125,,,,False,,,,,,,,,
,image-cpt,174,592758,,,,False,,,,,,,,,
,image-cpt,175,595908,,,,False,,,,,,,,,
609.0,image-cpt,176,598058,,,32,True,,,,,,,,,
,image-cpt,177,600708,,,,False,,,,,,,,,
,image-cpt,178,603358,,,,False,,,,,,,,,
,image-cpt,179,606991,,,,False,,,,,,,,,
,image-cpt,180,609141,,,,False,,,,,,,,,
,image-cpt,181,612774,,,,False,,,,,,,,,
,image-cpt,182,615924,,,,False,,,,,,,,,
,image-cpt,183,619073,,,,False,,,,,,,,,
,image-cpt,184,621723,,,,False,,,,,,,,,
,image-cpt,185,624873,,,,True,,,,,,,,,
,image-cpt,186,627007,,,,False,,,,,,,,,
,image-cpt,187,630640,,,,False,,,,,,,,,
,image-cpt,188,633290,,,,False,,,,,,,,,
635.0,image-cpt,189,636940,,,32,True,,,,,,,,,
489.0,image-cpt,190,640089,,,32,True,,,,,,,,,
555.0,image-cpt,191,642739,,,32,True,,,,,,,,,
449.0,image-cpt,192,646389,,,32,True,,,,,,,,,
,image-cpt,193,649539,,,,False,,,,,,,,,
,image-cpt,194,652189,,,,False,,,,,,,,,
552.0,image-cpt,195,654339,,,32,True,,,,,,,,,
,image-cpt,196,657988,,,,False,,,,,,,,,
449.0,image-cpt,197,661638,,,32,True,,,,,,,,,
,image-cpt,198,665271,,,,False,,,,,,,,,
,image-cpt,199,667921,,,,False,,,,,,,,,
597.0,image-cpt,200,671571,,,32,True,,,,,,,,,
578.0,image-cpt,201,674704,,,32,True,,,,,,,,,
,image-cpt,202,677854,,,,False,,,,,,,,,
,image-cpt,203,681004,,,,False,,,,,,,,,
,image-cpt,204,683654,,,,False,,,,,,,,,
,image-cpt,205,685804,,,,False,,,,,,,,,
,image-cpt,206,687953,,,,True,,,,,,,,,
,image-cpt,207,691603,,,,False,,,,,,,,,
,image-cpt,208,693753,,,,False,,,,,,,,,
,image-cpt,209,697403,,,,False,,,,,,,,,
,image-cpt,210,700553,,,,True,,,,,,,,,
508.0,image-cpt,211,704203,,,32,True,,,,,,,,,
794.0,image-cpt,212,707852,,,32,False,,,,,,,,,
537.0,image-cpt,213,711002,,,32,True,,,,,,,,,
,image-cpt,214,713135,,,,False,,,,,,,,,
629.0,image-cpt,215,715285,,,32,False,,,,,,,,,
,image-cpt,216,717435,,,,False,,,,,,,,,
,image-cpt,217,719585,,,,True,,,,,,,,,
,image-cpt,218,722235,,,,False,,,,,,,,,
650.0,image-cpt,219,724885,,,32,True,,,,,,,,,
688.0,image-cpt,220,728534,,,32,True,,,,,,,,,
,image-cpt,221,731684,,,,False,,,,,,,,,
961.0,image-cpt,222,734834,,,32,False,,,,,,,,,
,image-cpt,223,738484,,,,False,,,,,,,,,
,image-cpt,224,740634,,,,False,,,,,,,,,
,image-cpt,225,743284,,,,False,,,,,,,,,
577.0,image-cpt,226,745934,,,32,True,,,,,,,,,
423.0,image-cpt,227,748083,,,32,True,,,,,,,,,
,image-cpt,228,751233,,,,False,,,,,,,,,
,image-cpt,229,754366,,,,False,,,,,,,,,
,image-cpt,230,757516,,,,False,,,,,,,,,
,image-cpt,231,760666,,,,False,,,,,,,,,
,image-cpt,232,762799,,,,False,,,,,,,,,
,image-cpt,233,765949,,,,False,,,,,,,,,
,image-cpt,234,769582,,,,False,,,,,,,,,
502.0,image-cpt,235,772215,,,32,True,,,,,,,,,
,image-cpt,236,774365,,,,False,,,,,,,,,
423.0,image-cpt,237,777999,,,32,True,,,,,,,,,
,image-cpt,238,780632,,,,False,,,,,,,,,
701.0,image-cpt,239,783782,,,32,True,,,,,,,,,
,image-cpt,240,787415,,,,False,,,,,,,,,
510.0,image-cpt,241,791048,,,32,True,,,,,,,,,
,image-cpt,242,793198,,,,False,,,,,,,,,
,image-cpt,243,795348,,,,False,,,,,,,,,
,image-cpt,244,797498,,,,False,,,,,,,,,
,image-cpt,245,801147,,,,False,,,,,,,,,
,image-cpt,246,803297,,,,False,,,,,,,,,
532.0,image-cpt,247,806431,,,32,True,,,,,,,,,
,image-cpt,248,809580,,,,False,,,,,,,,,
,image-cpt,249,813230,,,,False,,,,,,,,,
,image-cpt,250,815380,,,,False,,,,,,,,,
,image-cpt,251,819030,,,,False,,,,,,,,,
,image-cpt,252,822180,,,,False,,,,,,,,,
,image-cpt,253,824330,,,,False,,,,,,,,,
,image-cpt,254,827463,,,,False,,,,,,,,,
,image-cpt,255,830096,,,,False,,,,,,,,,
,image-cpt,256,833746,,,,False,,,,,,,,,
531.0,image-cpt,257,837396,,,32,True,,,,,,,,,
,image-cpt,258,839545,,,,False,,,,,,,,,
891.0,image-cpt,259,843195,,,32,True,,,,,,,,,
923.0,image-cpt,260,846345,,,32,True,,,,,,,,,
,image-cpt,261,848495,,,,False,,,,,,,,,
,image-cpt,262,851645,,,,False,,,,,,,,,
,image-cpt,263,853795,,,,False,,,,,,,,,
,image-cpt,264,856445,,,,False,,,,,,,,,
1192.0,image-cpt,265,859078,,,32,True,,,,,,,,,
,image-cpt,266,861228,,,,False,,,,,,,,,
,image-cpt,267,863878,,,,False,,,,,,,,,
,image-cpt,268,866027,,,,False,,,,,,,,,
,image-cpt,269,869178,,,,False,,,,,,,,,
1100.0,image-cpt,270,872827,,,32,True,,,,,,,,,
,image-cpt,271,874977,,,,False,,,,,,,,,
,image-cpt,272,878627,,,,False,,,,,,,,,
1171.0,image-cpt,273,880777,,,32,True,,,,,,,,,
,image-cpt,274,882927,,,,False,,,,,,,,,
,image-cpt,275,886077,,,,False,,,,,,,,,
1113.0,image-cpt,276,889226,,,32,True,,,,,,,,,
,image-cpt,277,891360,,,,False,,,,,,,,,
,image-cpt,278,895009,,,,False,,,,,,,,,
,image-cpt,279,898659,,,,False,,,,,,,,,
1154.0,image-cpt,280,902309,,,32,True,,,,,,,,,
,image-cpt,281,905959,,,,False,,,,,,,,,
1103.0,image-cpt,282,909109,,,32,True,,,,,,,,,
,image-cpt,283,911759,,,,False,,,,,,,,,
823.0,image-cpt,284,915392,,,32,True,,,,,,,,,
,image-cpt,285,918042,,,,False,,,,,,,,,
1148.0,image-cpt,286,920691,,,32,True,,,,,,,,,
1170.0,image-cpt,287,922841,,,32,True,,,,,,,,,
1148.0,image-cpt,288,925491,,,32,True,,,,,,,,,
898.0,image-cpt,289,929141,,,32,True,,,,,,,,,
,image-cpt,290,932774,,,,False,,,,,,,,,
,image-cpt,291,935924,,,,False,,,,,,,,,
,image-cpt,292,938573,,,,False,,,,,,,,,
1063.0,image-cpt,293,940723,,,32,True,,,,,,,,,
,image-cpt,294,944373,,,,False,,,,,,,,,
960.0,image-cpt,295,948006,,,32,True,,,,,,,,,
,image-cpt,296,951639,,,,False,,,,,,,,,
941.0,image-cpt,297,954289,,,32,True,,,,,,,,,
899.0,image-cpt,298,957422,,,32,True,,,,,,,,,
,image-cpt,299,960572,,,,False,,,,,,,,,
,image-cpt,300,964222,,,,False,,,,,,,,,
919.0,image-cpt,301,967372,,,32,True,,,,,,,,,
,image-cpt,302,970522,,,,False,,,,,,,,,
,image-cpt,303,973172,,,,False,,,,,,,,,
801.0,image-cpt,304,975321,,,32,True,,,,,,,,,
795.0,image-cpt,305,978455,,,32,True,,,,,,,,,
750.0,image-cpt,306,981605,,,32,True,,,,,,,,,
,image-cpt,307,984238,,,,False,,,,,,,,,
,image-cpt,308,987388,,,,False,,,,,,,,,
,image-cpt,309,990038,,,,False,,,,,,,,,
,image-cpt,310,993188,,,,False,,,,,,,,,
1442.0,image-cpt,311,995337,,,32,True,,,,,,,,,
,image-cpt,312,998471,,,,False,,,,,,,,,
863.0,image-cpt,313,1001104,,,32,True,,,,,,,,,
,image-cpt,314,1003754,,,,False,,,,,,,,,
876.0,image-cpt,315,1006404,,,32,True,,,,,,,,,
,image-cpt,316,1009553,,,,False,,,,,,,,,
,image-cpt,317,1012687,,,,False,,,,,,,,,
,image-cpt,318,1016320,,,,False,,,,,,,,,
886.0,image-cpt,319,1019470,,,32,True,,,,,,,,,
,image-cpt,320,1023119,,,,False,,,,,,,,,
,image-cpt,321,1026269,,,,False,,,,,,,,,
856.0,image-cpt,322,1029419,,,32,True,,,,,,,,,
987.0,image-cpt,323,1032569,,,32,True,,,,,,,,,
,image-cpt,324,1035702,,,,False,,,,,,,,,
,image-cpt,325,1038852,,,,False,,,,,,,,,
,image-cpt,326,1041002,,,,False,,,,,,,,,
,image-cpt,327,1043652,,,,False,,,,,,,,,
,image-cpt,328,1046802,,,,False,,,,,,,,,
996.0,image-cpt,329,1049935,,,32,True,,,,,,,,,
,image-cpt,330,1053568,,,,False,,,,,,,,,
,image-cpt,331,1055718,,,,False,,,,,,,,,
,image-cpt,332,1058351,,,,False,,,,,,,,,
,image-cpt,333,1060501,,,,False,,,,,,,,,
,image-cpt,334,1063651,,,,False,,,,,,,,,
,image-cpt,335,1066301,,,,False,,,,,,,,,
,image-cpt,336,1068951,,,,False,,,,,,,,,
,image-cpt,337,1071584,,,,False,,,,,,,,,
,image-cpt,338,1075234,,,,False,,,,,,,,,
,image-cpt,339,1078367,,,,False,,,,,,,,,
551.0,image-cpt,340,1081517,,,32,True,,,,,,,,,
1417.0,image-cpt,341,1083666,,,32,True,,,,,,,,,
66427.0,instructions,342,1150094,,,,,,,,,,,,,
2793.199999809265,bRMS,343,1153296,,,P,,images/rms/f42887_e_001.jpg,training,0.0,400.0,True,True,0.0,63.0,63.0
966.5,bRMS,344,1155080,,,P,,images/rms/f42887_e_001.jpg,training,0.0,400.0,True,True,0.0,63.0,63.0
886.2000007629395,bRMS,345,1156777,,,Q,,images/rms/f42887_e_001.jpg,training,1.0,400.0,True,True,0.0,63.0,63.0
1309.3000001907349,bRMS,346,1158897,,,Q,,images/rms/f42887_e_001.jpg,training,1.0,400.0,True,True,0.0,63.0,63.0
838.8000001907349,bRMS,347,1160544,,,P,,images/rms/f42887_e_001.jpg,training,0.0,400.0,True,True,0.0,63.0,63.0
674.6999998092651,bRMS,348,1162024,,,P,,images/rms/f42887_e_001.jpg,training,0.0,400.0,True,True,0.0,63.0,63.0
587.8000001907349,bRMS,349,1163408,,,Q,,images/rms/f42887_e_001.jpg,training,1.0,400.0,True,True,0.0,63.0,63.0
499.8999996185303,bRMS,350,1164728,,,P,,images/rms/f42887_e_001.jpg,training,0.0,400.0,True,True,0.0,63.0,63.0
526.0,bRMS,351,1166057,,,P,,images/rms/f42887_e_001.jpg,training,0.0,400.0,True,True,0.0,63.0,63.0
410.80000019073486,bRMS,352,1167273,,,P,,images/rms/f42887_e_001.jpg,training,0.0,400.0,True,True,0.0,63.0,63.0
315.69999980926514,bRMS,353,1168393,,,P,,images/rms/f42887_e_001.jpg,training,0.0,400.0,True,True,0.0,63.0,63.0
433.5,bRMS,354,1169625,,,Q,,images/rms/f42887_e_001.jpg,training,1.0,400.0,True,True,0.0,63.0,63.0
315.8999996185303,bRMS,355,1170744,,,P,,images/rms/f42887_e_001.jpg,training,0.0,400.0,True,True,0.0,63.0,63.0
366.8999996185303,bRMS,356,1171928,,,Q,,images/rms/f42887_e_001.jpg,training,1.0,400.0,True,True,0.0,63.0,63.0
379.5,bRMS,357,1173129,,,P,,images/rms/f42887_e_001.jpg,training,0.0,400.0,True,True,0.0,63.0,63.0
345.19999980926514,bRMS,358,1174280,,,Q,,images/rms/f42887_e_001.jpg,training,1.0,400.0,True,True,0.0,63.0,63.0
2320.0,instructions,359,1177007,,,,,,,,,,,,,
1460.8000001907349,bRMS,360,1178873,,,Q,,images/rms/f42887_e_297_1.jpg,reversed,1.0,400.0,True,True,0.0,63.0,63.0
588.0999994277954,bRMS,361,1180260,,,Q,,images/rms/f42887_e_241.jpg,main,0.0,400.0,True,False,0.0,63.0,63.0
516.9000005722046,bRMS,362,1181576,,,Q,,images/rms/f42887_e_278.jpg,main,1.0,400.0,True,True,0.0,63.0,63.0
525.8000001907349,bRMS,363,1182905,,,P,,images/rms/f42887_e_028.jpg,main,1.0,400.0,True,False,0.0,63.0,63.0
611.1000003814697,bRMS,364,1184328,,,Q,,images/rms/f42887_e_080_1.jpg,reversed,1.0,400.0,True,True,0.0,63.0,63.0
606.4000005722046,bRMS,365,1185737,,,Q,,images/rms/f42887_e_245.jpg,main,1.0,400.0,True,True,0.0,63.0,63.0
595.8000001907349,bRMS,366,1187144,,,Q,,images/rms/f42887_e_293_1.jpg,reversed,1.0,400.0,True,True,0.0,63.0,63.0
525.1000003814697,bRMS,367,1188473,,,Q,,images/rms/f42887_e_259.jpg,main,1.0,400.0,True,True,0.0,63.0,63.0
607.9000005722046,bRMS,368,1189877,,,Q,,images/rms/f42887_e_202_1.jpg,reversed,1.0,400.0,True,True,0.0,63.0,63.0
520.8000001907349,bRMS,369,1191193,,,P,,images/rms/f42887_e_252_1.jpg,reversed,0.0,400.0,True,True,0.0,63.0,63.0
670.5,bRMS,370,1192660,,,P,,images/rms/f42887_e_252.jpg,main,0.0,400.0,True,True,0.0,63.0,63.0
456.5,bRMS,371,1193945,,,P,,images/rms/f42887_e_161.jpg,main,0.0,400.0,True,True,0.0,63.0,63.0
427.6000003814697,bRMS,372,1195176,,,P,,images/rms/f42887_e_156_1.jpg,reversed,0.0,400.0,True,True,0.0,63.0,63.0
575.8000001907349,bRMS,373,1196560,,,Q,,images/rms/f42887_e_258.jpg,main,0.0,400.0,True,False,0.0,63.0,63.0
622.6000003814697,bRMS,374,1197993,,,Q,,images/rms/f42887_e_025_1.jpg,reversed,1.0,400.0,True,True,0.0,63.0,63.0
449.20000076293945,bRMS,375,1199241,,,P,,images/rms/f42887_e_005.jpg,main,0.0,400.0,True,True,0.0,63.0,63.0
585.1999998092651,bRMS,376,1200625,,,Q,,images/rms/f42887_e_053_1.jpg,reversed,1.0,400.0,True,True,0.0,63.0,63.0
658.3000001907349,bRMS,377,1202089,,,Q,,images/rms/f42887_e_098.jpg,main,1.0,400.0,True,True,0.0,63.0,63.0
575.6999998092651,bRMS,378,1203473,,,Q,,images/rms/f42887_e_298_1.jpg,reversed,1.0,400.0,True,True,0.0,63.0,63.0
550.3000001907349,bRMS,379,1204825,,,Q,,images/rms/f42887_e_080.jpg,main,1.0,400.0,True,True,0.0,63.0,63.0
506.9000005722046,bRMS,380,1206137,,,Q,,images/rms/f42887_e_103.jpg,main,1.0,400.0,True,True,0.0,63.0,63.0
503.19999980926514,bRMS,381,1207443,,,P,,images/rms/f42887_e_156.jpg,main,0.0,400.0,True,True,0.0,63.0,63.0
788.7000007629395,bRMS,382,1209033,,,P,,images/rms/f42887_e_289_1.jpg,reversed,1.0,400.0,True,False,0.0,63.0,63.0
962.0,bRMS,383,1210793,,,Q,,images/rms/f42887_e_064_1.jpg,reversed,1.0,400.0,True,True,0.0,63.0,63.0
490.1000003814697,bRMS,384,1212089,,,Q,,images/rms/f42887_e_293.jpg,main,1.0,400.0,True,True,0.0,63.0,63.0
461.0,bRMS,385,1213360,,,P,,images/rms/f42887_e_025.jpg,main,0.0,400.0,True,True,0.0,63.0,63.0
642.8000001907349,bRMS,386,1214808,,,Q,,images/rms/f42887_e_058.jpg,main,1.0,400.0,True,True,0.0,63.0,63.0
521.8000001907349,bRMS,387,1216137,,,P,,images/rms/f42887_e_259_1.jpg,reversed,0.0,400.0,True,True,0.0,63.0,63.0
441.3999996185303,bRMS,388,1217384,,,P,,images/rms/f42887_e_127.jpg,main,0.0,400.0,True,True,0.0,63.0,63.0
487.4000005722046,bRMS,389,1218664,,,Q,,images/rms/f42887_e_161_1.jpg,reversed,1.0,400.0,True,True,0.0,63.0,63.0
489.8999996185303,bRMS,390,1219958,,,P,,images/rms/f42887_e_278_1.jpg,reversed,0.0,400.0,True,True,0.0,63.0,63.0
448.30000019073486,bRMS,391,1221209,,,P,,images/rms/f42887_e_103_1.jpg,reversed,0.0,400.0,True,True,0.0,63.0,63.0
398.30000019073486,bRMS,392,1222401,,,P,,images/rms/f42887_e_121_1.jpg,reversed,0.0,400.0,True,True,0.0,63.0,63.0
425.0,bRMS,393,1223625,,,P,,images/rms/f42887_e_180_1.jpg,reversed,0.0,400.0,True,True,0.0,63.0,63.0
501.70000076293945,bRMS,394,1224921,,,Q,,images/rms/f42887_e_295.jpg,main,1.0,400.0,True,True,0.0,63.0,63.0
515.3999996185303,bRMS,395,1226257,,,P,,images/rms/f42887_e_127_1.jpg,reversed,0.0,400.0,True,True,0.0,63.0,63.0
418.6000003814697,bRMS,396,1227480,,,Q,,images/rms/f42887_e_015.jpg,main,1.0,400.0,True,True,0.0,63.0,63.0
487.19999980926514,bRMS,397,1228758,,,Q,,images/rms/f42887_e_258_1.jpg,reversed,1.0,400.0,True,True,0.0,63.0,63.0
460.0,bRMS,398,1230024,,,Q,,images/rms/f42887_e_297.jpg,main,0.0,400.0,True,False,0.0,63.0,63.0
491.30000019073486,bRMS,399,1231320,,,Q,,images/rms/f42887_e_241_1.jpg,reversed,1.0,400.0,True,True,0.0,63.0,63.0
345.5999994277954,bRMS,400,1232473,,,P,,images/rms/f42887_e_289.jpg,main,1.0,400.0,True,False,0.0,63.0,63.0
554.5,bRMS,401,1233833,,,Q,,images/rms/f42887_e_245_1.jpg,reversed,1.0,400.0,True,True,0.0,63.0,63.0
463.3999996185303,bRMS,402,1235104,,,P,,images/rms/f42887_e_140_1.jpg,reversed,0.0,400.0,True,True,0.0,63.0,63.0
549.9000005722046,bRMS,403,1236457,,,Q,,images/rms/f42887_e_005_1.jpg,reversed,1.0,400.0,True,True,0.0,63.0,63.0
479.1000003814697,bRMS,404,1237736,,,Q,,images/rms/f42887_e_140.jpg,main,0.0,400.0,True,False,0.0,63.0,63.0
427.9000005722046,bRMS,405,1238969,,,P,,images/rms/f42887_e_296.jpg,main,0.0,400.0,True,True,0.0,63.0,63.0
426.30000019073486,bRMS,406,1240200,,,P,,images/rms/f42887_e_296_1.jpg,reversed,0.0,400.0,True,True,0.0,63.0,63.0
366.9000005722046,bRMS,407,1241385,,,P,,images/rms/f42887_e_180.jpg,main,0.0,400.0,True,True,0.0,63.0,63.0
580.8000001907349,bRMS,408,1242775,,,Q,,images/rms/f42887_e_202.jpg,main,1.0,400.0,True,True,0.0,63.0,63.0
480.5999994277954,bRMS,409,1244056,,,P,,images/rms/f42887_e_001.jpg,main,1.0,400.0,True,False,0.0,63.0,63.0
385.30000019073486,bRMS,410,1245240,,,P,,images/rms/f42887_e_058_1.jpg,reversed,0.0,400.0,True,True,0.0,63.0,63.0
544.9000005722046,bRMS,411,1246584,,,Q,,images/rms/f42887_e_028_1.jpg,reversed,1.0,400.0,True,True,0.0,63.0,63.0
513.2000007629395,bRMS,412,1247907,,,Q,,images/rms/f42887_e_098_1.jpg,reversed,1.0,400.0,True,True,0.0,63.0,63.0
591.8000001907349,bRMS,413,1249304,,,P,,images/rms/f42887_e_072_1.jpg,reversed,1.0,400.0,True,False,0.0,63.0,63.0
558.6000003814697,bRMS,414,1250665,,,Q,,images/rms/f42887_e_001_1.jpg,reversed,1.0,400.0,True,True,0.0,63.0,63.0
458.80000019073486,bRMS,415,1251921,,,P,,images/rms/f42887_e_298.jpg,main,0.0,400.0,True,True,0.0,63.0,63.0
476.4000005722046,bRMS,416,1253208,,,P,,images/rms/f42887_e_072.jpg,main,0.0,400.0,True,True,0.0,63.0,63.0
444.30000019073486,bRMS,417,1254457,,,Q,,images/rms/f42887_e_053.jpg,main,1.0,400.0,True,True,0.0,63.0,63.0
479.3999996185303,bRMS,418,1255736,,,Q,,images/rms/f42887_e_295_1.jpg,reversed,1.0,400.0,True,True,0.0,63.0,63.0
481.80000019073486,bRMS,419,1257033,,,Q,,images/rms/f42887_e_121.jpg,main,1.0,400.0,True,True,0.0,63.0,63.0
454.70000076293945,bRMS,420,1258304,,,Q,,images/rms/f42887_e_064.jpg,main,1.0,400.0,True,True,0.0,63.0,63.0
421.9000005722046,bRMS,421,1259523,,,Q,,images/rms/f42887_e_015_1.jpg,reversed,0.0,400.0,True,False,0.0,63.0,63.0
11209.0,instructions,422,1271142,,,,,,,,,,,,,
1225.8000001907349,bRMS,423,1272768,,,P,,images/rms/f42887_e_058_1.jpg,control_reversed,0.0,400.0,True,True,0.0,63.0,63.0
719.3000001907349,bRMS,424,1274297,,,Q,,images/rms/f42887_e_241.jpg,control_main,1.0,400.0,True,True,0.0,63.0,63.0
439.9000005722046,bRMS,425,1275539,,,P,,images/rms/f42887_e_005_1.jpg,control_reversed,0.0,400.0,True,True,0.0,63.0,63.0
486.1000003814697,bRMS,426,1276832,,,Q,,images/rms/f42887_e_072.jpg,control_main,1.0,400.0,True,True,0.0,63.0,63.0
396.5999994277954,bRMS,427,1278039,,,P,,images/rms/f42887_e_064.jpg,control_main,0.0,400.0,True,True,0.0,63.0,63.0
493.80000019073486,bRMS,428,1279337,,,P,,images/rms/f42887_e_293_1.jpg,control_reversed,0.0,400.0,True,True,0.0,63.0,63.0
574.5,bRMS,429,1280712,,,Q,,images/rms/f42887_e_028.jpg,control_main,1.0,400.0,True,True,0.0,63.0,63.0
456.69999980926514,bRMS,430,1281969,,,P,,images/rms/f42887_e_053.jpg,control_main,0.0,400.0,True,True,0.0,63.0,63.0
383.0,bRMS,431,1283168,,,P,,images/rms/f42887_e_098.jpg,control_main,1.0,400.0,True,False,0.0,63.0,63.0
397.19999980926514,bRMS,432,1284372,,,Q,,images/rms/f42887_e_252_1.jpg,control_reversed,1.0,400.0,True,True,0.0,63.0,63.0
428.0,bRMS,433,1285600,,,P,,images/rms/f42887_e_297_1.jpg,control_reversed,1.0,400.0,True,False,0.0,63.0,63.0
366.19999980926514,bRMS,434,1286771,,,Q,,images/rms/f42887_e_258.jpg,control_main,1.0,400.0,True,True,0.0,63.0,63.0
397.6000003814697,bRMS,435,1287984,,,Q,,images/rms/f42887_e_296_1.jpg,control_reversed,0.0,400.0,True,False,0.0,63.0,63.0
429.6000003814697,bRMS,436,1289222,,,P,,images/rms/f42887_e_289_1.jpg,control_reversed,0.0,400.0,True,True,0.0,63.0,63.0
497.5,bRMS,437,1290520,,,Q,,images/rms/f42887_e_296.jpg,control_main,1.0,400.0,True,True,0.0,63.0,63.0
415.19999980926514,bRMS,438,1291736,,,Q,,images/rms/f42887_e_298_1.jpg,control_reversed,1.0,400.0,True,True,0.0,63.0,63.0
361.8999996185303,bRMS,439,1292904,,,Q,,images/rms/f42887_e_156_1.jpg,control_reversed,1.0,400.0,True,True,0.0,63.0,63.0
352.0,bRMS,440,1294072,,,Q,,images/rms/f42887_e_121_1.jpg,control_reversed,1.0,400.0,True,True,0.0,63.0,63.0
317.4000005722046,bRMS,441,1295185,,,Q,,images/rms/f42887_e_241_1.jpg,control_reversed,1.0,400.0,True,True,0.0,63.0,63.0
365.1000003814697,bRMS,442,1296368,,,Q,,images/rms/f42887_e_156.jpg,control_main,0.0,400.0,True,False,0.0,63.0,63.0
393.19999980926514,bRMS,443,1297568,,,Q,,images/rms/f42887_e_298.jpg,control_main,1.0,400.0,True,True,0.0,63.0,63.0
441.69999980926514,bRMS,444,1298800,,,Q,,images/rms/f42887_e_202.jpg,control_main,1.0,400.0,True,True,0.0,63.0,63.0
383.70000076293945,bRMS,445,1299987,,,Q,,images/rms/f42887_e_005.jpg,control_main,0.0,400.0,True,False,0.0,63.0,63.0
451.9000005722046,bRMS,446,1301257,,,Q,,images/rms/f42887_e_015_1.jpg,control_reversed,1.0,400.0,True,True,0.0,63.0,63.0
347.6000003814697,bRMS,447,1302416,,,P,,images/rms/f42887_e_180_1.jpg,control_reversed,0.0,400.0,True,True,0.0,63.0,63.0
388.0,bRMS,448,1303600,,,Q,,images/rms/f42887_e_289.jpg,control_main,1.0,400.0,True,True,0.0,63.0,63.0
446.1000003814697,bRMS,449,1304855,,,Q,,images/rms/f42887_e_098_1.jpg,control_reversed,1.0,400.0,True,True,0.0,63.0,63.0
494.0999994277954,bRMS,450,1306153,,,P,,images/rms/f42887_e_053_1.jpg,control_reversed,0.0,400.0,True,True,0.0,63.0,63.0
402.79999923706055,bRMS,451,1307352,,,Q,,images/rms/f42887_e_202_1.jpg,control_reversed,1.0,400.0,True,True,0.0,63.0,63.0
355.0,bRMS,452,1308520,,,P,,images/rms/f42887_e_245_1.jpg,control_reversed,0.0,400.0,True,True,0.0,63.0,63.0
332.6000003814697,bRMS,453,1309672,,,P,,images/rms/f42887_e_259.jpg,control_main,0.0,400.0,True,True,0.0,63.0,63.0
341.0,bRMS,454,1310801,,,P,,images/rms/f42887_e_001.jpg,control_main,1.0,400.0,True,False,0.0,63.0,63.0
398.1000003814697,bRMS,455,1312016,,,P,,images/rms/f42887_e_028_1.jpg,control_reversed,0.0,400.0,True,True,0.0,63.0,63.0
391.3999996185303,bRMS,456,1313204,,,P,,images/rms/f42887_e_297.jpg,control_main,0.0,400.0,True,True,0.0,63.0,63.0
506.19999980926514,bRMS,457,1314505,,,Q,,images/rms/f42887_e_072_1.jpg,control_reversed,1.0,400.0,True,True,0.0,63.0,63.0
381.0,bRMS,458,1315688,,,Q,,images/rms/f42887_e_161_1.jpg,control_reversed,1.0,400.0,True,True,0.0,63.0,63.0
381.8999996185303,bRMS,459,1316871,,,P,,images/rms/f42887_e_161.jpg,control_main,0.0,400.0,True,True,0.0,63.0,63.0
479.19999980926514,bRMS,460,1318153,,,P,,images/rms/f42887_e_140.jpg,control_main,0.0,400.0,True,True,0.0,63.0,63.0
478.69999980926514,bRMS,461,1319433,,,Q,,images/rms/f42887_e_245.jpg,control_main,1.0,400.0,True,True,0.0,63.0,63.0
383.3999996185303,bRMS,462,1320617,,,P,,images/rms/f42887_e_140_1.jpg,control_reversed,0.0,400.0,True,True,0.0,63.0,63.0
323.0999994277954,bRMS,463,1321736,,,Q,,images/rms/f42887_e_058.jpg,control_main,1.0,400.0,True,True,0.0,63.0,63.0
414.4000005722046,bRMS,464,1322969,,,P,,images/rms/f42887_e_180.jpg,control_main,0.0,400.0,True,True,0.0,63.0,63.0
349.0999994277954,bRMS,465,1324136,,,Q,,images/rms/f42887_e_278_1.jpg,control_reversed,0.0,400.0,True,False,0.0,63.0,63.0
400.3999996185303,bRMS,466,1325336,,,P,,images/rms/f42887_e_015.jpg,control_main,1.0,400.0,True,False,0.0,63.0,63.0
509.3999996185303,bRMS,467,1326664,,,Q,,images/rms/f42887_e_293.jpg,control_main,1.0,400.0,True,True,0.0,63.0,63.0
375.20000076293945,bRMS,468,1327849,,,P,,images/rms/f42887_e_127_1.jpg,control_reversed,0.0,400.0,True,True,0.0,63.0,63.0
421.5,bRMS,469,1329081,,,P,,images/rms/f42887_e_080_1.jpg,control_reversed,0.0,400.0,True,True,0.0,63.0,63.0
390.3999996185303,bRMS,470,1330281,,,P,,images/rms/f42887_e_103_1.jpg,control_reversed,0.0,400.0,True,True,0.0,63.0,63.0
372.0999994277954,bRMS,471,1331465,,,P,,images/rms/f42887_e_252.jpg,control_main,0.0,400.0,True,True,0.0,63.0,63.0
456.6000003814697,bRMS,472,1332736,,,Q,,images/rms/f42887_e_295_1.jpg,control_reversed,1.0,400.0,True,True,0.0,63.0,63.0
391.3999996185303,bRMS,473,1333928,,,P,,images/rms/f42887_e_103.jpg,control_main,0.0,400.0,True,True,0.0,63.0,63.0
452.9000005722046,bRMS,474,1335200,,,P,,images/rms/f42887_e_278.jpg,control_main,0.0,400.0,True,True,0.0,63.0,63.0
378.0,bRMS,475,1336377,,,Q,,images/rms/f42887_e_127.jpg,control_main,1.0,400.0,True,True,0.0,63.0,63.0
267.80000019073486,bRMS,476,1337448,,,P,,images/rms/f42887_e_295.jpg,control_main,0.0,400.0,True,True,0.0,63.0,63.0
384.19999980926514,bRMS,477,1338633,,,P,,images/rms/f42887_e_258_1.jpg,control_reversed,0.0,400.0,True,True,0.0,63.0,63.0
318.69999980926514,bRMS,478,1339752,,,P,,images/rms/f42887_e_025_1.jpg,control_reversed,0.0,400.0,True,True,0.0,63.0,63.0
404.0,bRMS,479,1340953,,,Q,,images/rms/f42887_e_080.jpg,control_main,1.0,400.0,True,True,0.0,63.0,63.0
331.9000005722046,bRMS,480,1342105,,,P,,images/rms/f42887_e_121.jpg,control_main,0.0,400.0,True,True,0.0,63.0,63.0
366.80000019073486,bRMS,481,1343285,,,P,,images/rms/f42887_e_001_1.jpg,control_reversed,0.0,400.0,True,True,0.0,63.0,63.0
381.4000005722046,bRMS,482,1344465,,,P,,images/rms/f42887_e_025.jpg,control_main,0.0,400.0,True,True,0.0,63.0,63.0
393.69999980926514,bRMS,483,1345652,,,Q,,images/rms/f42887_e_064_1.jpg,control_reversed,1.0,400.0,True,True,0.0,63.0,63.0
270.80000019073486,bRMS,484,1346737,,,P,,images/rms/f42887_e_259_1.jpg,control_reversed,1.0,400.0,True,False,0.0,63.0,63.0
2781.0,instructions,485,1349927,,,,,,,,,,,,,
12223.0,survey-likert,486,1362151,"{""Q0"":0,""Q1"":1,""Q2"":1}",ASRS_2_6,,,,,,,,,,,
12663.0,survey-likert,487,1374815,"{""Q0"":0,""Q1"":0,""Q2"":0}",ASRS_1_0,,,,,,,,,,,
11911.0,survey-likert,488,1386728,"{""Q0"":1,""Q1"":1,""Q2"":0}",ASRS_2_0,,,,,,,,,,,
9015.0,survey-likert,489,1395744,"{""Q0"":1,""Q1"":1,""Q2"":0}",ASRS_2_3,,,,,,,,,,,
10591.0,survey-likert,490,1406335,"{""Q0"":0,""Q1"":0,""Q2"":0}",ASRS_1_3,,,,,,,,,,,
10903.0,survey-likert,491,1417239,"{""Q0"":0,""Q1"":1,""Q2"":0}",ASRS_2_9,,,,,,,,,,,
4111.0,survey-likert,492,1421351,"{""Q0"":4}",LAST_1,,,,,,,,,,,
2269.0,survey-multi-choice,493,1423623,"{""Q0"":""כן""}",,,,,,,,,,,,
12615.0,survey-text,494,1436239,"{""Q0"":""התמקדות בצד אחד של המסך""}",,,,,,,,,,,,
4039.0,survey-likert,495,1440279,"{""Q0"":4}",LAST_4,,,,,,,,,,,
3446.0,survey-multi-choice,496,1443727,"{""Q0"":""כן""}",,,,,,,,,,,,
24735.0,survey-text,497,1468462,"{""Q0"":""לחכות עד שיופיע ולנער \n כדי להמנע מרפלקסים את היד""}",,,,,,,,,,,,
5495.0,survey-likert,498,1473959,"{""Q0"":5}",DRIVE_1,,,,,,,,,,,
5647.0,survey-text,499,1479607,"{""Q0"":""0""}",,,,,,,,,,,,
3623.0,survey-text,500,1483231,"{""Q0"":""0""}",,,,,,,,,,,,
1295.0,instructions,501,1484526,,,,,,,,,,,,,
