rt,trial_type,trial_index,time_elapsed,responses,name,key_press,is_stimulus,stimulus,stimulus_block,stimulus_side,time_post_trial,is_fullscreen,correct,trial_began,block,sub_block
140426.0,instructions,0,140426,,,,,,,,,,,,,
22957.0,survey-multi-choice,1,163386,"{""Q0"":""גבר"",""Q1"":""ימין"",""Q2"":""עברית""}",,,,,,,,,,,,
26143.0,survey-text,2,189530,"{""Q0"":""27"",""Q1"":""49""}",,,,,,,,,,,,
2126.0,survey-multi-choice,3,191657,"{""Q0"":""לא""}",,,,,,,,,,,,
7647.0,survey-likert,4,199305,"{""Q0"":5}",attention_2,,,,,,,,,,,
5471.0,instructions,5,204777,,,,,,,,,,,,,
,image-cpt,6,207906,,,,False,,,,,,,,,
,image-cpt,7,211040,,,,False,,,,,,,,,
,image-cpt,8,213188,,,,False,,,,,,,,,
326.0,image-cpt,9,216829,,,32,True,,,,,,,,,
,image-cpt,10,218971,,,,False,,,,,,,,,
,image-cpt,11,222619,,,,False,,,,,,,,,
270.0,image-cpt,12,226255,,,32,True,,,,,,,,,
,image-cpt,13,229888,,,,False,,,,,,,,,
,image-cpt,14,232537,,,,False,,,,,,,,,
320.0,image-cpt,15,235169,,,32,True,,,,,,,,,
280.0,image-cpt,16,237820,,,32,True,,,,,,,,,
,image-cpt,17,240955,,,,False,,,,,,,,,
286.0,image-cpt,18,243104,,,32,False,,,,,,,,,
,image-cpt,19,244135,,,,False,,,,,,,,,
,image-cpt,20,246786,,,,False,,,,,,,,,
2456.0,instructions,21,249242,,,,,,,,,,,,,
,image-cpt,22,251385,,,,False,,,,,,,,,
,image-cpt,23,255035,,,,False,,,,,,,,,
,image-cpt,24,258685,,,,False,,,,,,,,,
,image-cpt,25,261835,,,,False,,,,,,,,,
303.0,image-cpt,26,264483,,,32,False,,,,,,,,,
,image-cpt,27,267634,,,,False,,,,,,,,,
343.0,image-cpt,28,270284,,,32,True,,,,,,,,,
381.0,image-cpt,29,272933,,,32,True,,,,,,,,,
,image-cpt,30,276583,,,,False,,,,,,,,,
,image-cpt,31,279233,,,,False,,,,,,,,,
264.0,image-cpt,32,282366,,,32,True,,,,,,,,,
283.0,image-cpt,33,284516,,,32,True,,,,,,,,,
,image-cpt,34,287666,,,,False,,,,,,,,,
,image-cpt,35,291316,,,,False,,,,,,,,,
,image-cpt,36,293456,,,,False,,,,,,,,,
,image-cpt,37,295584,,,,False,,,,,,,,,
,image-cpt,38,298732,,,,False,,,,,,,,,
,image-cpt,39,302366,,,,False,,,,,,,,,
314.0,image-cpt,40,306015,,,32,True,,,,,,,,,
,image-cpt,41,308665,,,,False,,,,,,,,,
400.0,image-cpt,42,311799,,,32,True,,,,,,,,,
290.0,image-cpt,43,315449,,,32,False,,,,,,,,,
,image-cpt,44,317582,,,,False,,,,,,,,,
410.0,image-cpt,45,319732,,,32,False,,,,,,,,,
293.0,image-cpt,46,323381,,,32,True,,,,,,,,,
,image-cpt,47,327031,,,,False,,,,,,,,,
290.0,image-cpt,48,330681,,,32,True,,,,,,,,,
272.0,image-cpt,49,333815,,,32,False,,,,,,,,,
,image-cpt,50,336464,,,,False,,,,,,,,,
,image-cpt,51,337497,,,,False,,,,,,,,,
,image-cpt,52,341147,,,,False,,,,,,,,,
,image-cpt,53,343297,,,,False,,,,,,,,,
,image-cpt,54,345947,,,,False,,,,,,,,,
,image-cpt,55,348097,,,,False,,,,,,,,,
,image-cpt,56,350230,,,,False,,,,,,,,,
370.0,image-cpt,57,352380,,,32,True,,,,,,,,,
,image-cpt,58,356030,,,,False,,,,,,,,,
,image-cpt,59,358680,,,,False,,,,,,,,,
481.0,image-cpt,60,361830,,,32,True,,,,,,,,,
,image-cpt,61,363979,,,,False,,,,,,,,,
349.0,image-cpt,62,367629,,,32,True,,,,,,,,,
,image-cpt,63,370779,,,,False,,,,,,,,,
,image-cpt,64,373429,,,,False,,,,,,,,,
,image-cpt,65,377063,,,,False,,,,,,,,,
,image-cpt,66,380212,,,,False,,,,,,,,,
,image-cpt,67,382362,,,,False,,,,,,,,,
,image-cpt,68,385012,,,,True,,,,,,,,,
,image-cpt,69,388662,,,,False,,,,,,,,,
,image-cpt,70,391311,,,,False,,,,,,,,,
329.0,image-cpt,71,393962,,,32,False,,,,,,,,,
,image-cpt,72,397611,,,,False,,,,,,,,,
286.0,image-cpt,73,399761,,,32,True,,,,,,,,,
,image-cpt,74,401911,,,,False,,,,,,,,,
,image-cpt,75,405561,,,,False,,,,,,,,,
,image-cpt,76,408211,,,,False,,,,,,,,,
,image-cpt,77,411861,,,,False,,,,,,,,,
,image-cpt,78,414495,,,,False,,,,,,,,,
458.0,image-cpt,79,417144,,,32,True,,,,,,,,,
,image-cpt,80,420794,,,,False,,,,,,,,,
303.0,image-cpt,81,422944,,,32,True,,,,,,,,,
,image-cpt,82,425594,,,,False,,,,,,,,,
,image-cpt,83,427743,,,,False,,,,,,,,,
297.0,image-cpt,84,430393,,,32,True,,,,,,,,,
,image-cpt,85,434043,,,,False,,,,,,,,,
285.0,image-cpt,86,436193,,,32,False,,,,,,,,,
423.0,image-cpt,87,439310,,,32,True,,,,,,,,,
,image-cpt,88,441459,,,,False,,,,,,,,,
293.0,image-cpt,89,443609,,,32,False,,,,,,,,,
286.0,image-cpt,90,445759,,,32,True,,,,,,,,,
264.0,image-cpt,91,449409,,,32,True,,,,,,,,,
455.0,image-cpt,92,452059,,,32,True,,,,,,,,,
,image-cpt,93,454709,,,,False,,,,,,,,,
,image-cpt,94,458342,,,,False,,,,,,,,,
,image-cpt,95,461992,,,,False,,,,,,,,,
,image-cpt,96,464126,,,,False,,,,,,,,,
,image-cpt,97,466275,,,,False,,,,,,,,,
486.0,image-cpt,98,468425,,,32,True,,,,,,,,,
,image-cpt,99,471075,,,,False,,,,,,,,,
,image-cpt,100,474725,,,,False,,,,,,,,,
,image-cpt,101,476875,,,,False,,,,,,,,,
,image-cpt,102,480524,,,,False,,,,,,,,,
332.0,image-cpt,103,483674,,,32,True,,,,,,,,,
318.0,image-cpt,104,487324,,,32,True,,,,,,,,,
316.0,image-cpt,105,490474,,,32,False,,,,,,,,,
,image-cpt,106,491491,,,,False,,,,,,,,,
486.0,image-cpt,107,494640,,,32,True,,,,,,,,,
312.0,image-cpt,108,498290,,,32,False,,,,,,,,,
,image-cpt,109,500940,,,,False,,,,,,,,,
,image-cpt,110,503090,,,,False,,,,,,,,,
,image-cpt,111,505740,,,,False,,,,,,,,,
428.0,image-cpt,112,507890,,,32,False,,,,,,,,,
,image-cpt,113,510040,,,,False,,,,,,,,,
,image-cpt,114,512174,,,,False,,,,,,,,,
,image-cpt,115,514323,,,,False,,,,,,,,,
358.0,image-cpt,116,517972,,,32,True,,,,,,,,,
,image-cpt,117,521606,,,,False,,,,,,,,,
,image-cpt,118,524256,,,,False,,,,,,,,,
,image-cpt,119,527905,,,,False,,,,,,,,,
295.0,image-cpt,120,530055,,,32,False,,,,,,,,,
,image-cpt,121,532705,,,,False,,,,,,,,,
,image-cpt,122,534855,,,,False,,,,,,,,,
,image-cpt,123,538005,,,,False,,,,,,,,,
,image-cpt,124,540155,,,,False,,,,,,,,,
,image-cpt,125,542305,,,,False,,,,,,,,,
487.0,image-cpt,126,545439,,,32,True,,,,,,,,,
,image-cpt,127,547588,,,,False,,,,,,,,,
324.0,image-cpt,128,550222,,,32,False,,,,,,,,,
410.0,image-cpt,129,552871,,,32,True,,,,,,,,,
,image-cpt,130,556021,,,,False,,,,,,,,,
676.0,image-cpt,131,558171,,,32,True,,,,,,,,,
317.0,image-cpt,132,560321,,,32,False,,,,,,,,,
312.0,image-cpt,133,563454,,,32,True,,,,,,,,,
,image-cpt,134,566604,,,,False,,,,,,,,,
,image-cpt,135,568754,,,,False,,,,,,,,,
,image-cpt,136,571904,,,,False,,,,,,,,,
,image-cpt,137,575054,,,,False,,,,,,,,,
364.0,image-cpt,138,577704,,,32,True,,,,,,,,,
386.0,image-cpt,139,580354,,,32,False,,,,,,,,,
,image-cpt,140,584004,,,,False,,,,,,,,,
,image-cpt,141,587654,,,,False,,,,,,,,,
292.0,image-cpt,142,591287,,,32,True,,,,,,,,,
275.0,image-cpt,143,594936,,,32,True,,,,,,,,,
,image-cpt,144,598587,,,,False,,,,,,,,,
,image-cpt,145,601236,,,,False,,,,,,,,,
357.0,image-cpt,146,603386,,,32,False,,,,,,,,,
335.0,image-cpt,147,607036,,,32,True,,,,,,,,,
510.0,image-cpt,148,610186,,,32,True,,,,,,,,,
,image-cpt,149,613320,,,,False,,,,,,,,,
,image-cpt,150,615469,,,,False,,,,,,,,,
1019.0,image-cpt,151,618619,,,32,True,,,,,,,,,
,image-cpt,152,621769,,,,False,,,,,,,,,
,image-cpt,153,623902,,,,False,,,,,,,,,
2012.0,image-cpt,154,626552,,,32,True,,,,,,,,,
338.0,image-cpt,155,629202,,,32,True,,,,,,,,,
,image-cpt,156,632336,,,,False,,,,,,,,,
,image-cpt,157,635984,,,,False,,,,,,,,,
328.0,image-cpt,158,639634,,,32,False,,,,,,,,,
374.0,image-cpt,159,642284,,,32,True,,,,,,,,,
,image-cpt,160,645434,,,,False,,,,,,,,,
286.0,image-cpt,161,648084,,,32,True,,,,,,,,,
,image-cpt,162,651733,,,,False,,,,,,,,,
292.0,image-cpt,163,655367,,,32,False,,,,,,,,,
,image-cpt,164,659016,,,,False,,,,,,,,,
352.0,image-cpt,165,661667,,,32,True,,,,,,,,,
,image-cpt,166,665316,,,,True,,,,,,,,,
,image-cpt,167,667951,,,,False,,,,,,,,,
,image-cpt,168,671584,,,,False,,,,,,,,,
,image-cpt,169,673733,,,,False,,,,,,,,,
484.0,image-cpt,170,676367,,,32,False,,,,,,,,,
,image-cpt,171,678515,,,,False,,,,,,,,,
,image-cpt,172,682149,,,,False,,,,,,,,,
,image-cpt,173,684299,,,,False,,,,,,,,,
,image-cpt,174,687449,,,,False,,,,,,,,,
,image-cpt,175,690098,,,,False,,,,,,,,,
,image-cpt,176,692748,,,,False,,,,,,,,,
524.0,image-cpt,177,695382,,,32,True,,,,,,,,,
,image-cpt,178,697531,,,,False,,,,,,,,,
,image-cpt,179,700681,,,,False,,,,,,,,,
447.0,image-cpt,180,704331,,,32,True,,,,,,,,,
,image-cpt,181,706981,,,,False,,,,,,,,,
,image-cpt,182,710615,,,,False,,,,,,,,,
370.0,image-cpt,183,712764,,,32,True,,,,,,,,,
396.0,image-cpt,184,716398,,,32,True,,,,,,,,,
331.0,image-cpt,185,719547,,,32,True,,,,,,,,,
317.0,image-cpt,186,722697,,,32,True,,,,,,,,,
,image-cpt,187,726347,,,,False,,,,,,,,,
,image-cpt,188,728997,,,,False,,,,,,,,,
,image-cpt,189,731147,,,,False,,,,,,,,,
350.0,image-cpt,190,733297,,,32,False,,,,,,,,,
664.0,image-cpt,191,735431,,,32,True,,,,,,,,,
562.0,image-cpt,192,738079,,,32,False,,,,,,,,,
329.0,image-cpt,193,741730,,,32,True,,,,,,,,,
,image-cpt,194,744879,,,,False,,,,,,,,,
,image-cpt,195,748029,,,,False,,,,,,,,,
363.0,image-cpt,196,751179,,,32,True,,,,,,,,,
813.0,image-cpt,197,753829,,,32,False,,,,,,,,,
,image-cpt,198,756462,,,,False,,,,,,,,,
602.0,image-cpt,199,759112,,,32,True,,,,,,,,,
336.0,image-cpt,200,762762,,,32,True,,,,,,,,,
,image-cpt,201,765412,,,,False,,,,,,,,,
,image-cpt,202,768562,,,,False,,,,,,,,,
,image-cpt,203,770712,,,,False,,,,,,,,,
,image-cpt,204,772861,,,,False,,,,,,,,,
,image-cpt,205,775496,,,,False,,,,,,,,,
,image-cpt,206,778645,,,,False,,,,,,,,,
371.0,image-cpt,207,781279,,,32,True,,,,,,,,,
,image-cpt,208,784428,,,,False,,,,,,,,,
,image-cpt,209,788078,,,,False,,,,,,,,,
,image-cpt,210,790712,,,,False,,,,,,,,,
306.0,image-cpt,211,793861,,,32,True,,,,,,,,,
404.0,image-cpt,212,797494,,,32,True,,,,,,,,,
,image-cpt,213,800144,,,,False,,,,,,,,,
313.0,image-cpt,214,803794,,,32,True,,,,,,,,,
359.0,image-cpt,215,806943,,,32,True,,,,,,,,,
,image-cpt,216,810593,,,,False,,,,,,,,,
,image-cpt,217,813744,,,,False,,,,,,,,,
,image-cpt,218,815893,,,,False,,,,,,,,,
708.0,image-cpt,219,819043,,,32,True,,,,,,,,,
,image-cpt,220,822693,,,,False,,,,,,,,,
,image-cpt,221,825843,,,,False,,,,,,,,,
,image-cpt,222,828493,,,,False,,,,,,,,,
652.0,image-cpt,223,831127,,,32,True,,,,,,,,,
386.0,image-cpt,224,834776,,,32,True,,,,,,,,,
,image-cpt,225,837425,,,,False,,,,,,,,,
,image-cpt,226,841076,,,,False,,,,,,,,,
,image-cpt,227,844226,,,,False,,,,,,,,,
,image-cpt,228,846876,,,,False,,,,,,,,,
366.0,image-cpt,229,849025,,,32,True,,,,,,,,,
,image-cpt,230,851159,,,,False,,,,,,,,,
,image-cpt,231,853309,,,,False,,,,,,,,,
,image-cpt,232,856459,,,,False,,,,,,,,,
447.0,image-cpt,233,859108,,,32,True,,,,,,,,,
437.0,image-cpt,234,862258,,,32,True,,,,,,,,,
,image-cpt,235,864408,,,,False,,,,,,,,,
,image-cpt,236,868058,,,,False,,,,,,,,,
,image-cpt,237,870208,,,,False,,,,,,,,,
,image-cpt,238,873858,,,,False,,,,,,,,,
472.0,image-cpt,239,875992,,,32,True,,,,,,,,,
514.0,image-cpt,240,879641,,,32,True,,,,,,,,,
,image-cpt,241,881774,,,,False,,,,,,,,,
380.0,image-cpt,242,884924,,,32,True,,,,,,,,,
,image-cpt,243,887073,,,,False,,,,,,,,,
616.0,image-cpt,244,890207,,,32,True,,,,,,,,,
554.0,image-cpt,245,893357,,,32,True,,,,,,,,,
,image-cpt,246,896507,,,,False,,,,,,,,,
,image-cpt,247,899641,,,,False,,,,,,,,,
,image-cpt,248,902290,,,,False,,,,,,,,,
359.0,image-cpt,249,905424,,,32,True,,,,,,,,,
,image-cpt,250,908573,,,,False,,,,,,,,,
,image-cpt,251,911207,,,,False,,,,,,,,,
,image-cpt,252,914856,,,,False,,,,,,,,,
,image-cpt,253,916989,,,,False,,,,,,,,,
,image-cpt,254,920139,,,,False,,,,,,,,,
,image-cpt,255,922789,,,,False,,,,,,,,,
597.0,image-cpt,256,926423,,,32,False,,,,,,,,,
451.0,image-cpt,257,928572,,,32,True,,,,,,,,,
,image-cpt,258,931722,,,,False,,,,,,,,,
304.0,image-cpt,259,934871,,,32,True,,,,,,,,,
433.0,image-cpt,260,938021,,,32,True,,,,,,,,,
,image-cpt,261,941171,,,,False,,,,,,,,,
390.0,image-cpt,262,943804,,,32,False,,,,,,,,,
589.0,image-cpt,263,946438,,,32,True,,,,,,,,,
,image-cpt,264,950072,,,,False,,,,,,,,,
513.0,image-cpt,265,953220,,,32,True,,,,,,,,,
,image-cpt,266,956854,,,,False,,,,,,,,,
,image-cpt,267,960004,,,,False,,,,,,,,,
,image-cpt,268,963653,,,,False,,,,,,,,,
,image-cpt,269,966287,,,,False,,,,,,,,,
,image-cpt,270,969936,,,,False,,,,,,,,,
424.0,image-cpt,271,973586,,,32,True,,,,,,,,,
503.0,image-cpt,272,976736,,,32,True,,,,,,,,,
489.0,image-cpt,273,979886,,,32,True,,,,,,,,,
,image-cpt,274,982536,,,,False,,,,,,,,,
,image-cpt,275,985186,,,,False,,,,,,,,,
,image-cpt,276,987335,,,,False,,,,,,,,,
,image-cpt,277,990485,,,,False,,,,,,,,,
,image-cpt,278,994119,,,,False,,,,,,,,,
,image-cpt,279,996769,,,,False,,,,,,,,,
,image-cpt,280,998902,,,,False,,,,,,,,,
532.0,image-cpt,281,1002051,,,32,True,,,,,,,,,
,image-cpt,282,1004702,,,,False,,,,,,,,,
,image-cpt,283,1006851,,,,False,,,,,,,,,
,image-cpt,284,1009501,,,,False,,,,,,,,,
,image-cpt,285,1011651,,,,False,,,,,,,,,
,image-cpt,286,1015301,,,,False,,,,,,,,,
597.0,image-cpt,287,1017434,,,32,True,,,,,,,,,
,image-cpt,288,1019584,,,,False,,,,,,,,,
,image-cpt,289,1021718,,,,False,,,,,,,,,
,image-cpt,290,1024367,,,,False,,,,,,,,,
,image-cpt,291,1028017,,,,False,,,,,,,,,
,image-cpt,292,1031150,,,,False,,,,,,,,,
,image-cpt,293,1034300,,,,False,,,,,,,,,
,image-cpt,294,1037934,,,,False,,,,,,,,,
459.0,image-cpt,295,1040083,,,32,True,,,,,,,,,
,image-cpt,296,1042733,,,,False,,,,,,,,,
,image-cpt,297,1045366,,,,False,,,,,,,,,
610.0,image-cpt,298,1048516,,,32,True,,,,,,,,,
,image-cpt,299,1050666,,,,False,,,,,,,,,
,image-cpt,300,1054316,,,,False,,,,,,,,,
414.0,image-cpt,301,1056966,,,32,True,,,,,,,,,
372.0,image-cpt,302,1059116,,,32,True,,,,,,,,,
,image-cpt,303,1062266,,,,False,,,,,,,,,
319.0,image-cpt,304,1064915,,,32,True,,,,,,,,,
,image-cpt,305,1067566,,,,False,,,,,,,,,
380.0,image-cpt,306,1069716,,,32,True,,,,,,,,,
,image-cpt,307,1072865,,,,False,,,,,,,,,
,image-cpt,308,1075515,,,,False,,,,,,,,,
,image-cpt,309,1077665,,,,False,,,,,,,,,
,image-cpt,310,1080798,,,,False,,,,,,,,,
299.0,image-cpt,311,1083448,,,32,False,,,,,,,,,
,image-cpt,312,1085582,,,,False,,,,,,,,,
,image-cpt,313,1088731,,,,False,,,,,,,,,
445.0,image-cpt,314,1091881,,,32,True,,,,,,,,,
,image-cpt,315,1095514,,,,False,,,,,,,,,
,image-cpt,316,1098164,,,,False,,,,,,,,,
,image-cpt,317,1100314,,,,False,,,,,,,,,
,image-cpt,318,1103464,,,,False,,,,,,,,,
,image-cpt,319,1105598,,,,False,,,,,,,,,
,image-cpt,320,1108247,,,,True,,,,,,,,,
322.0,image-cpt,321,1110897,,,32,True,,,,,,,,,
328.0,image-cpt,322,1114547,,,32,True,,,,,,,,,
,image-cpt,323,1117197,,,,False,,,,,,,,,
,image-cpt,324,1119347,,,,False,,,,,,,,,
,image-cpt,325,1122497,,,,False,,,,,,,,,
297.0,image-cpt,326,1124631,,,32,True,,,,,,,,,
355.0,image-cpt,327,1128280,,,32,True,,,,,,,,,
290.0,image-cpt,328,1131929,,,32,True,,,,,,,,,
,image-cpt,329,1134579,,,,False,,,,,,,,,
,image-cpt,330,1137713,,,,False,,,,,,,,,
,image-cpt,331,1139847,,,,False,,,,,,,,,
,image-cpt,332,1143495,,,,False,,,,,,,,,
610.0,image-cpt,333,1147145,,,32,True,,,,,,,,,
,image-cpt,334,1150295,,,,True,,,,,,,,,
322.0,image-cpt,335,1153445,,,32,True,,,,,,,,,
,image-cpt,336,1157078,,,,False,,,,,,,,,
,image-cpt,337,1160228,,,,False,,,,,,,,,
,image-cpt,338,1163378,,,,False,,,,,,,,,
,image-cpt,339,1167028,,,,False,,,,,,,,,
454.0,image-cpt,340,1170178,,,32,True,,,,,,,,,
,image-cpt,341,1173328,,,,False,,,,,,,,,
27138.0,instructions,342,1200466,,,,,,,,,,,,,
4675.700000047684,bRMS,343,1205527,,,P,,images/rms/f42887_e_001.jpg,training,0.0,400.0,False,True,0.0,63.0,63.0
1103.7000000476835,bRMS,344,1207423,,,P,,images/rms/f42887_e_001.jpg,training,0.0,400.0,False,True,0.0,63.0,63.0
871.9000000953674,bRMS,345,1209071,,,P,,images/rms/f42887_e_001.jpg,training,0.0,400.0,False,True,0.0,63.0,63.0
1134.7999999523165,bRMS,346,1210991,,,Q,,images/rms/f42887_e_001.jpg,training,1.0,400.0,False,True,0.0,63.0,63.0
1639.0999999046326,bRMS,347,1213407,,,Q,,images/rms/f42887_e_001.jpg,training,1.0,400.0,False,True,0.0,63.0,63.0
1079.4000000953674,bRMS,348,1215271,,,P,,images/rms/f42887_e_001.jpg,training,0.0,400.0,False,True,0.0,63.0,63.0
686.4000000953674,bRMS,349,1216743,,,Q,,images/rms/f42887_e_001.jpg,training,1.0,400.0,False,True,0.0,63.0,63.0
558.2999999523163,bRMS,350,1218087,,,Q,,images/rms/f42887_e_001.jpg,training,1.0,400.0,False,True,0.0,63.0,63.0
503.2000000476837,bRMS,351,1219375,,,Q,,images/rms/f42887_e_001.jpg,training,1.0,400.0,False,True,0.0,63.0,63.0
455.0,bRMS,352,1220623,,,Q,,images/rms/f42887_e_001.jpg,training,1.0,400.0,False,True,0.0,63.0,63.0
569.9000000953674,bRMS,353,1221958,,,Q,,images/rms/f42887_e_001.jpg,training,1.0,400.0,False,True,0.0,63.0,63.0
898.2000000476837,bRMS,354,1223639,,,P,,images/rms/f42887_e_001.jpg,training,0.0,400.0,False,True,0.0,63.0,63.0
703.5,bRMS,355,1225120,,,Q,,images/rms/f42887_e_001.jpg,training,1.0,400.0,False,True,0.0,63.0,63.0
502.9000000953674,bRMS,356,1226407,,,Q,,images/rms/f42887_e_001.jpg,training,1.0,400.0,False,True,0.0,63.0,63.0
607.0,bRMS,357,1227790,,,Q,,images/rms/f42887_e_001.jpg,training,1.0,400.0,False,True,0.0,63.0,63.0
1047.1999998092651,bRMS,358,1229606,,,P,,images/rms/f42887_e_001.jpg,training,0.0,400.0,False,True,0.0,63.0,63.0
1641.0,instructions,359,1231658,,,,,,,,,,,,,
1961.5,bRMS,360,1233976,,,P,,images/rms/f42887_e_127_1.jpg,reversed,0.0,400.0,False,True,0.0,63.0,63.0
781.5999999046326,bRMS,361,1235535,,,P,,images/rms/f42887_e_028.jpg,main,0.0,400.0,False,True,0.0,63.0,63.0
919.2000000476836,bRMS,362,1237231,,,Q,,images/rms/f42887_e_064.jpg,main,1.0,400.0,False,True,0.0,63.0,63.0
624.2000000476837,bRMS,363,1238615,,,P,,images/rms/f42887_e_298.jpg,main,0.0,400.0,False,True,0.0,63.0,63.0
1206.9000000953674,bRMS,364,1240591,,,Q,,images/rms/f42887_e_278_1.jpg,reversed,1.0,400.0,False,True,0.0,63.0,63.0
1525.0999999046326,bRMS,365,1242887,,,Q,,images/rms/f42887_e_156.jpg,main,1.0,400.0,False,True,0.0,63.0,63.0
594.0,bRMS,366,1244256,,,Q,,images/rms/f42887_e_103_1.jpg,reversed,1.0,400.0,False,True,0.0,63.0,63.0
1013.6999998092653,bRMS,367,1246055,,,Q,,images/rms/f42887_e_161.jpg,main,1.0,400.0,False,True,0.0,63.0,63.0
1231.0,bRMS,368,1248071,,,P,,images/rms/f42887_e_293.jpg,main,0.0,400.0,False,True,0.0,63.0,63.0
727.0999999046326,bRMS,369,1249590,,,Q,,images/rms/f42887_e_015_1.jpg,reversed,1.0,400.0,False,True,0.0,63.0,63.0
1586.0,bRMS,370,1251940,,,Q,,images/rms/f42887_e_080_1.jpg,reversed,1.0,400.0,False,True,0.0,63.0,63.0
1168.7000000476835,bRMS,371,1253888,,,P,,images/rms/f42887_e_252_1.jpg,reversed,0.0,400.0,False,True,0.0,63.0,63.0
968.0999999046326,bRMS,372,1255632,,,Q,,images/rms/f42887_e_098_1.jpg,reversed,1.0,400.0,False,True,0.0,63.0,63.0
1421.3000001907349,bRMS,373,1257840,,,P,,images/rms/f42887_e_080.jpg,main,0.0,400.0,False,True,0.0,63.0,63.0
594.7999999523163,bRMS,374,1259206,,,P,,images/rms/f42887_e_296.jpg,main,0.0,400.0,False,True,0.0,63.0,63.0
654.4000000953674,bRMS,375,1260631,,,P,,images/rms/f42887_e_028_1.jpg,reversed,0.0,400.0,False,True,0.0,63.0,63.0
997.7999999523164,bRMS,376,1262408,,,Q,,images/rms/f42887_e_121.jpg,main,1.0,400.0,False,True,0.0,63.0,63.0
1117.3999998569489,bRMS,377,1264303,,,P,,images/rms/f42887_e_025_1.jpg,reversed,0.0,400.0,False,True,0.0,63.0,63.0
1398.3999998569489,bRMS,378,1266471,,,Q,,images/rms/f42887_e_001.jpg,main,1.0,400.0,False,True,0.0,63.0,63.0
1103.0999999046326,bRMS,379,1268340,,,Q,,images/rms/f42887_e_180.jpg,main,1.0,400.0,False,True,0.0,63.0,63.0
2678.600000143051,bRMS,380,1271792,,,P,,images/rms/f42887_e_245.jpg,main,0.0,400.0,False,True,0.0,63.0,63.0
5206.699999809265,bRMS,381,1277773,,,P,,images/rms/f42887_e_295_1.jpg,reversed,0.0,400.0,False,True,0.0,63.0,63.0
741.7999999523163,bRMS,382,1279288,,,P,,images/rms/f42887_e_241.jpg,main,0.0,400.0,False,True,0.0,63.0,63.0
861.7000000476837,bRMS,383,1280922,,,P,,images/rms/f42887_e_289.jpg,main,0.0,400.0,False,True,0.0,63.0,63.0
927.7999999523164,bRMS,384,1282624,,,P,,images/rms/f42887_e_072.jpg,main,0.0,400.0,False,True,0.0,63.0,63.0
1623.2999999523165,bRMS,385,1285039,,,Q,,images/rms/f42887_e_127.jpg,main,1.0,400.0,False,True,0.0,63.0,63.0
1367.0999999046326,bRMS,386,1287184,,,P,,images/rms/f42887_e_001_1.jpg,reversed,0.0,400.0,False,True,0.0,63.0,63.0
1919.0999999046328,bRMS,387,1289888,,,Q,,images/rms/f42887_e_289_1.jpg,reversed,1.0,400.0,False,True,0.0,63.0,63.0
1462.0999999046326,bRMS,388,1292120,,,P,,images/rms/f42887_e_058.jpg,main,0.0,400.0,False,True,0.0,63.0,63.0
1373.7000000476835,bRMS,389,1294287,,,Q,,images/rms/f42887_e_103.jpg,main,1.0,400.0,False,True,0.0,63.0,63.0
1767.2999999523165,bRMS,390,1296840,,,Q,,images/rms/f42887_e_015.jpg,main,1.0,400.0,False,True,0.0,63.0,63.0
1550.5,bRMS,391,1299184,,,Q,,images/rms/f42887_e_161_1.jpg,reversed,1.0,400.0,False,True,0.0,63.0,63.0
1142.7000000476835,bRMS,392,1301096,,,P,,images/rms/f42887_e_258.jpg,main,0.0,400.0,False,True,0.0,63.0,63.0
570.7999999523163,bRMS,393,1302471,,,P,,images/rms/f42887_e_053_1.jpg,reversed,0.0,400.0,False,True,0.0,63.0,63.0
446.2999999523163,bRMS,394,1303687,,,P,,images/rms/f42887_e_005.jpg,main,0.0,400.0,False,True,0.0,63.0,63.0
1183.3000001907349,bRMS,395,1305638,,,Q,,images/rms/f42887_e_298_1.jpg,reversed,1.0,400.0,False,True,0.0,63.0,63.0
606.6000001430511,bRMS,396,1307015,,,Q,,images/rms/f42887_e_005_1.jpg,reversed,1.0,400.0,False,True,0.0,63.0,63.0
520.4000000953674,bRMS,397,1308319,,,Q,,images/rms/f42887_e_259.jpg,main,1.0,400.0,False,True,0.0,63.0,63.0
537.7000000476837,bRMS,398,1309621,,,Q,,images/rms/f42887_e_293_1.jpg,reversed,1.0,400.0,False,True,0.0,63.0,63.0
542.9000000953674,bRMS,399,1310944,,,Q,,images/rms/f42887_e_278.jpg,main,1.0,400.0,False,True,0.0,63.0,63.0
459.7000000476837,bRMS,400,1312199,,,Q,,images/rms/f42887_e_121_1.jpg,reversed,1.0,400.0,False,True,0.0,63.0,63.0
593.2999999523163,bRMS,401,1313567,,,P,,images/rms/f42887_e_297.jpg,main,0.0,400.0,False,True,0.0,63.0,63.0
487.0,bRMS,402,1314821,,,Q,,images/rms/f42887_e_140_1.jpg,reversed,1.0,400.0,False,True,0.0,63.0,63.0
918.7999999523164,bRMS,403,1316503,,,Q,,images/rms/f42887_e_202_1.jpg,reversed,1.0,400.0,False,True,0.0,63.0,63.0
910.5999999046326,bRMS,404,1318199,,,Q,,images/rms/f42887_e_296_1.jpg,reversed,1.0,400.0,False,True,0.0,63.0,63.0
759.6999998092651,bRMS,405,1319735,,,Q,,images/rms/f42887_e_098.jpg,main,1.0,400.0,False,True,0.0,63.0,63.0
637.2000000476837,bRMS,406,1321144,,,Q,,images/rms/f42887_e_241_1.jpg,reversed,1.0,400.0,False,True,0.0,63.0,63.0
2695.0,bRMS,407,1324616,,,P,,images/rms/f42887_e_259_1.jpg,reversed,0.0,400.0,False,True,0.0,63.0,63.0
1501.2000000476835,bRMS,408,1326904,,,Q,,images/rms/f42887_e_297_1.jpg,reversed,1.0,400.0,False,True,0.0,63.0,63.0
766.0,bRMS,409,1328448,,,P,,images/rms/f42887_e_202.jpg,main,0.0,400.0,False,True,0.0,63.0,63.0
567.0999999046326,bRMS,410,1329800,,,P,,images/rms/f42887_e_072_1.jpg,reversed,0.0,400.0,False,True,0.0,63.0,63.0
526.7000000476837,bRMS,411,1331103,,,P,,images/rms/f42887_e_245_1.jpg,reversed,0.0,400.0,False,True,0.0,63.0,63.0
1158.3999998569489,bRMS,412,1333039,,,Q,,images/rms/f42887_e_058_1.jpg,reversed,1.0,400.0,False,True,0.0,63.0,63.0
1335.0,bRMS,413,1335143,,,P,,images/rms/f42887_e_258_1.jpg,reversed,0.0,400.0,False,True,0.0,63.0,63.0
584.0,bRMS,414,1336504,,,P,,images/rms/f42887_e_156_1.jpg,reversed,0.0,400.0,False,True,0.0,63.0,63.0
1985.7999999523165,bRMS,415,1339271,,,Q,,images/rms/f42887_e_252.jpg,main,1.0,400.0,False,True,0.0,63.0,63.0
926.4000000953674,bRMS,416,1340999,,,Q,,images/rms/f42887_e_025.jpg,main,1.0,400.0,False,True,0.0,63.0,63.0
920.7999999523164,bRMS,417,1342696,,,Q,,images/rms/f42887_e_064_1.jpg,reversed,1.0,400.0,False,True,0.0,63.0,63.0
869.7000000476837,bRMS,418,1344338,,,Q,,images/rms/f42887_e_180_1.jpg,reversed,1.0,400.0,False,True,0.0,63.0,63.0
1958.6000001430511,bRMS,419,1347063,,,Q,,images/rms/f42887_e_140.jpg,main,1.0,400.0,False,True,0.0,63.0,63.0
1158.3999998569489,bRMS,420,1349003,,,P,,images/rms/f42887_e_053.jpg,main,0.0,400.0,False,True,0.0,63.0,63.0
1502.0999999046326,bRMS,421,1351280,,,Q,,images/rms/f42887_e_295.jpg,main,1.0,400.0,False,True,0.0,63.0,63.0
8891.0,instructions,422,1360586,,,,,,,,,,,,,
2901.700000047684,bRMS,423,1363847,,,P,,images/rms/f42887_e_289.jpg,control_main,0.0,400.0,False,True,0.0,63.0,63.0
1088.6999998092651,bRMS,424,1365711,,,Q,,images/rms/f42887_e_161.jpg,control_main,1.0,400.0,False,True,0.0,63.0,63.0
847.0999999046326,bRMS,425,1367352,,,P,,images/rms/f42887_e_015.jpg,control_main,0.0,400.0,False,True,0.0,63.0,63.0
2033.0999999046328,bRMS,426,1370151,,,P,,images/rms/f42887_e_080_1.jpg,control_reversed,0.0,400.0,False,True,0.0,63.0,63.0
1535.0999999046326,bRMS,427,1372463,,,Q,,images/rms/f42887_e_028_1.jpg,control_reversed,1.0,400.0,False,True,0.0,63.0,63.0
655.5999999046326,bRMS,428,1373919,,,Q,,images/rms/f42887_e_001.jpg,control_main,1.0,400.0,False,True,0.0,63.0,63.0
2263.599999904633,bRMS,429,1376967,,,Q,,images/rms/f42887_e_295_1.jpg,control_reversed,1.0,400.0,False,True,0.0,63.0,63.0
925.5,bRMS,430,1378663,,,P,,images/rms/f42887_e_259.jpg,control_main,0.0,400.0,False,True,0.0,63.0,63.0
5023.299999952316,bRMS,431,1384480,,,P,,images/rms/f42887_e_298_1.jpg,control_reversed,0.0,400.0,False,True,0.0,63.0,63.0
1646.5,bRMS,432,1386911,,,Q,,images/rms/f42887_e_156.jpg,control_main,1.0,400.0,False,True,0.0,63.0,63.0
561.7999999523163,bRMS,433,1388264,,,Q,,images/rms/f42887_e_005_1.jpg,control_reversed,1.0,400.0,False,True,0.0,63.0,63.0
990.1999998092653,bRMS,434,1390048,,,Q,,images/rms/f42887_e_297_1.jpg,control_reversed,1.0,400.0,False,True,0.0,63.0,63.0
2615.0,bRMS,435,1393434,,,Q,,images/rms/f42887_e_241.jpg,control_main,1.0,400.0,False,True,0.0,63.0,63.0
3215.5,bRMS,436,1397415,,,P,,images/rms/f42887_e_298.jpg,control_main,0.0,400.0,False,True,0.0,63.0,63.0
1694.7000000476835,bRMS,437,1399879,,,P,,images/rms/f42887_e_259_1.jpg,control_reversed,0.0,400.0,False,True,0.0,63.0,63.0
3087.099999904633,bRMS,438,1403750,,,Q,,images/rms/f42887_e_080.jpg,control_main,1.0,400.0,False,True,0.0,63.0,63.0
702.6000001430511,bRMS,439,1405217,,,Q,,images/rms/f42887_e_161_1.jpg,control_reversed,1.0,400.0,False,True,0.0,63.0,63.0
1141.4000000953674,bRMS,440,1407151,,,P,,images/rms/f42887_e_064_1.jpg,control_reversed,0.0,400.0,False,True,0.0,63.0,63.0
486.5,bRMS,441,1408408,,,P,,images/rms/f42887_e_053_1.jpg,control_reversed,0.0,400.0,False,True,0.0,63.0,63.0
871.7999999523163,bRMS,442,1410063,,,P,,images/rms/f42887_e_293.jpg,control_main,0.0,400.0,False,True,0.0,63.0,63.0
1806.7999999523165,bRMS,443,1412648,,,Q,,images/rms/f42887_e_127.jpg,control_main,1.0,400.0,False,True,0.0,63.0,63.0
719.2000000476837,bRMS,444,1414151,,,P,,images/rms/f42887_e_028.jpg,control_main,0.0,400.0,False,True,0.0,63.0,63.0
1358.7000000476835,bRMS,445,1416279,,,Q,,images/rms/f42887_e_278_1.jpg,control_reversed,1.0,400.0,False,True,0.0,63.0,63.0
1256.4000000953674,bRMS,446,1418311,,,P,,images/rms/f42887_e_180_1.jpg,control_reversed,0.0,400.0,False,True,0.0,63.0,63.0
870.1999998092651,bRMS,447,1419968,,,Q,,images/rms/f42887_e_072_1.jpg,control_reversed,1.0,400.0,False,True,0.0,63.0,63.0
1175.2999999523165,bRMS,448,1421911,,,P,,images/rms/f42887_e_156_1.jpg,control_reversed,0.0,400.0,False,True,0.0,63.0,63.0
3319.7999999523163,bRMS,449,1426015,,,P,,images/rms/f42887_e_245_1.jpg,control_reversed,0.0,400.0,False,True,0.0,63.0,63.0
566.1999998092651,bRMS,450,1427359,,,P,,images/rms/f42887_e_289_1.jpg,control_reversed,0.0,400.0,False,True,0.0,63.0,63.0
1248.2000000476835,bRMS,451,1429382,,,Q,,images/rms/f42887_e_258.jpg,control_main,1.0,400.0,False,True,0.0,63.0,63.0
1663.5999999046326,bRMS,452,1431831,,,Q,,images/rms/f42887_e_121_1.jpg,control_reversed,1.0,400.0,False,True,0.0,63.0,63.0
831.4000000953674,bRMS,453,1433447,,,Q,,images/rms/f42887_e_278.jpg,control_main,1.0,400.0,False,True,0.0,63.0,63.0
975.0999999046326,bRMS,454,1435200,,,P,,images/rms/f42887_e_064.jpg,control_main,0.0,400.0,False,True,0.0,63.0,63.0
1894.5,bRMS,455,1437865,,,P,,images/rms/f42887_e_072.jpg,control_main,0.0,400.0,False,True,0.0,63.0,63.0
845.5999999046326,bRMS,456,1439480,,,P,,images/rms/f42887_e_025.jpg,control_main,0.0,400.0,False,True,0.0,63.0,63.0
591.5,bRMS,457,1440848,,,P,,images/rms/f42887_e_121.jpg,control_main,0.0,400.0,False,True,0.0,63.0,63.0
378.59999990463257,bRMS,458,1442000,,,P,,images/rms/f42887_e_241_1.jpg,control_reversed,0.0,400.0,False,True,0.0,63.0,63.0
549.5,bRMS,459,1443315,,,P,,images/rms/f42887_e_098_1.jpg,control_reversed,0.0,400.0,False,True,0.0,63.0,63.0
1874.5999999046328,bRMS,460,1445967,,,P,,images/rms/f42887_e_005.jpg,control_main,0.0,400.0,False,True,0.0,63.0,63.0
1175.2000000476835,bRMS,461,1447927,,,Q,,images/rms/f42887_e_127_1.jpg,control_reversed,1.0,400.0,False,True,0.0,63.0,63.0
2215.700000047684,bRMS,462,1450927,,,Q,,images/rms/f42887_e_015_1.jpg,control_reversed,1.0,400.0,False,True,0.0,63.0,63.0
3726.299999952316,bRMS,463,1455447,,,P,,images/rms/f42887_e_297.jpg,control_main,1.0,400.0,False,False,0.0,63.0,63.0
1437.0999999046326,bRMS,464,1457655,,,P,,images/rms/f42887_e_202.jpg,control_main,0.0,400.0,False,True,0.0,63.0,63.0
1016.4000000953674,bRMS,465,1459447,,,Q,,images/rms/f42887_e_098.jpg,control_main,1.0,400.0,False,True,0.0,63.0,63.0
1246.7999999523165,bRMS,466,1461462,,,P,,images/rms/f42887_e_258_1.jpg,control_reversed,0.0,400.0,False,True,0.0,63.0,63.0
2255.199999809265,bRMS,467,1464495,,,Q,,images/rms/f42887_e_001_1.jpg,control_reversed,1.0,400.0,False,True,0.0,63.0,63.0
3254.600000143051,bRMS,468,1468515,,,Q,,images/rms/f42887_e_180.jpg,control_main,1.0,400.0,False,True,0.0,63.0,63.0
1430.0999999046326,bRMS,469,1470711,,,P,,images/rms/f42887_e_296_1.jpg,control_reversed,0.0,400.0,False,True,0.0,63.0,63.0
1612.7999999523165,bRMS,470,1473111,,,Q,,images/rms/f42887_e_103.jpg,control_main,1.0,400.0,False,True,0.0,63.0,63.0
1374.6999998092651,bRMS,471,1475263,,,Q,,images/rms/f42887_e_140_1.jpg,control_reversed,1.0,400.0,False,True,0.0,63.0,63.0
1893.5999999046328,bRMS,472,1477930,,,Q,,images/rms/f42887_e_293_1.jpg,control_reversed,1.0,400.0,False,True,0.0,63.0,63.0
3274.699999809265,bRMS,473,1481982,,,P,,images/rms/f42887_e_245.jpg,control_main,0.0,400.0,False,True,0.0,63.0,63.0
950.1999998092653,bRMS,474,1483712,,,Q,,images/rms/f42887_e_252_1.jpg,control_reversed,1.0,400.0,False,True,0.0,63.0,63.0
1872.0,bRMS,475,1486360,,,Q,,images/rms/f42887_e_202_1.jpg,control_reversed,1.0,400.0,False,True,0.0,63.0,63.0
506.5,bRMS,476,1487640,,,Q,,images/rms/f42887_e_053.jpg,control_main,1.0,400.0,False,True,0.0,63.0,63.0
2312.200000047684,bRMS,477,1490743,,,P,,images/rms/f42887_e_296.jpg,control_main,0.0,400.0,False,True,0.0,63.0,63.0
815.1000001430511,bRMS,478,1492343,,,Q,,images/rms/f42887_e_140.jpg,control_main,1.0,400.0,False,True,0.0,63.0,63.0
605.0,bRMS,479,1493719,,,Q,,images/rms/f42887_e_058_1.jpg,control_reversed,1.0,400.0,False,True,0.0,63.0,63.0
1158.7000000476835,bRMS,480,1495663,,,P,,images/rms/f42887_e_252.jpg,control_main,0.0,400.0,False,True,0.0,63.0,63.0
711.7000000476837,bRMS,481,1497160,,,Q,,images/rms/f42887_e_025_1.jpg,control_reversed,1.0,400.0,False,True,0.0,63.0,63.0
4177.100000143051,bRMS,482,1502112,,,P,,images/rms/f42887_e_295.jpg,control_main,0.0,400.0,False,True,0.0,63.0,63.0
2454.100000143051,bRMS,483,1505344,,,Q,,images/rms/f42887_e_058.jpg,control_main,1.0,400.0,False,True,0.0,63.0,63.0
2215.5,bRMS,484,1508328,,,P,,images/rms/f42887_e_103_1.jpg,control_reversed,0.0,400.0,False,True,0.0,63.0,63.0
3241.0,instructions,485,1511978,,,,,,,,,,,,,
20207.0,survey-likert,486,1532186,"{""Q0"":2,""Q1"":3,""Q2"":3}",ASRS_2_0,,,,,,,,,,,
20902.0,survey-likert,487,1553090,"{""Q0"":2,""Q1"":3,""Q2"":3}",ASRS_2_9,,,,,,,,,,,
15240.0,survey-likert,488,1568330,"{""Q0"":3,""Q1"":3,""Q2"":1}",ASRS_1_0,,,,,,,,,,,
13559.0,survey-likert,489,1581890,"{""Q0"":4,""Q1"":2,""Q2"":4}",ASRS_1_3,,,,,,,,,,,
11599.0,survey-likert,490,1593490,"{""Q0"":4,""Q1"":4,""Q2"":3}",ASRS_2_6,,,,,,,,,,,
11800.0,survey-likert,491,1605290,"{""Q0"":2,""Q1"":4,""Q2"":1}",ASRS_2_3,,,,,,,,,,,
5056.0,survey-likert,492,1610346,"{""Q0"":3}",LAST_1,,,,,,,,,,,
4607.0,survey-multi-choice,493,1614954,"{""Q0"":""לא""}",,,,,,,,,,,,
1016.0,survey-text,494,1615970,"{""Q0"":""""}",,,,,,,,,,,,
7752.0,survey-likert,495,1623722,"{""Q0"":4}",LAST_4,,,,,,,,,,,
1519.0,survey-multi-choice,496,1625242,"{""Q0"":""לא""}",,,,,,,,,,,,
719.0,survey-text,497,1625962,"{""Q0"":""""}",,,,,,,,,,,,
10288.0,survey-likert,498,1636250,"{""Q0"":0}",DRIVE_1,,,,,,,,,,,
5072.0,survey-text,499,1641322,"{""Q0"":""0""}",,,,,,,,,,,,
8687.0,survey-text,500,1650010,"{""Q0"":""1""}",,,,,,,,,,,,
1288.0,instructions,501,1651298,,,,,,,,,,,,,
