rt,trial_type,trial_index,time_elapsed,responses,name,stimulus,stimulus_block,stimulus_side,key_press,time_post_trial,is_fullscreen,correct,trial_began,block,sub_block,is_stimulus
966956.0,instructions,0,966958,,,,,,,,,,,,,
5893.0,survey-multi-choice,1,972853,"{""Q0"":""אישה"",""Q1"":""ימין"",""Q2"":""עברית""}",,,,,,,,,,,,
4687.0,survey-text,2,977541,"{""Q0"":""23"",""Q1"":""35""}",,,,,,,,,,,,
2247.0,survey-multi-choice,3,979789,"{""Q0"":""לא""}",,,,,,,,,,,,
3991.0,survey-likert,4,983781,"{""Q0"":0}",attention_2,,,,,,,,,,,
18088.0,instructions,5,1001869,,,,,,,,,,,,,
2354.9000000953674,bRMS,6,1004610,,,images/rms/f42887_e_001.jpg,training,0.0,P,400.0,False,True,0.0,63.0,63.0,
606.1999998092651,bRMS,7,1005994,,,images/rms/f42887_e_001.jpg,training,1.0,Q,400.0,False,True,0.0,63.0,63.0,
793.2000000476837,bRMS,8,1007561,,,images/rms/f42887_e_001.jpg,training,0.0,P,400.0,False,True,0.0,63.0,63.0,
745.1000001430511,bRMS,9,1009090,,,images/rms/f42887_e_001.jpg,training,0.0,P,400.0,False,True,0.0,63.0,63.0,
679.0,bRMS,10,1010562,,,images/rms/f42887_e_001.jpg,training,0.0,P,400.0,False,True,0.0,63.0,63.0,
751.0,bRMS,11,1012098,,,images/rms/f42887_e_001.jpg,training,0.0,P,400.0,False,True,0.0,63.0,63.0,
503.5,bRMS,12,1013393,,,images/rms/f42887_e_001.jpg,training,1.0,Q,400.0,False,True,0.0,63.0,63.0,
976.0,bRMS,13,1015146,,,images/rms/f42887_e_001.jpg,training,0.0,P,400.0,False,True,0.0,63.0,63.0,
615.0,bRMS,14,1016546,,,images/rms/f42887_e_001.jpg,training,0.0,P,400.0,False,True,0.0,63.0,63.0,
496.6000001430512,bRMS,15,1017818,,,images/rms/f42887_e_001.jpg,training,0.0,P,400.0,False,True,0.0,63.0,63.0,
542.0,bRMS,16,1019145,,,images/rms/f42887_e_001.jpg,training,0.0,P,400.0,False,True,0.0,63.0,63.0,
470.6000001430512,bRMS,17,1020394,,,images/rms/f42887_e_001.jpg,training,1.0,Q,400.0,False,True,0.0,63.0,63.0,
502.39999985694885,bRMS,18,1021673,,,images/rms/f42887_e_001.jpg,training,0.0,P,400.0,False,True,0.0,63.0,63.0,
382.69999980926514,bRMS,19,1022842,,,images/rms/f42887_e_001.jpg,training,1.0,Q,400.0,False,True,0.0,63.0,63.0,
678.0,bRMS,20,1024297,,,images/rms/f42887_e_001.jpg,training,1.0,Q,400.0,False,True,0.0,63.0,63.0,
805.3999998569489,bRMS,21,1025891,,,images/rms/f42887_e_001.jpg,training,1.0,Q,400.0,False,True,0.0,63.0,63.0,
2525.0,instructions,22,1028829,,,,,,,,,,,,,
1326.0,bRMS,23,1030522,,,images/rms/f42887_e_058_1.jpg,reversed,0.0,P,400.0,False,True,0.0,63.0,63.0,
536.5,bRMS,24,1031826,,,images/rms/f42887_e_202.jpg,main,0.0,P,400.0,False,True,0.0,63.0,63.0,
604.5,bRMS,25,1033210,,,images/rms/f42887_e_025_1.jpg,reversed,0.0,P,400.0,False,True,0.0,63.0,63.0,
756.4000000953674,bRMS,26,1034746,,,images/rms/f42887_e_293_1.jpg,reversed,1.0,Q,400.0,False,True,0.0,63.0,63.0,
629.8999998569489,bRMS,27,1036154,,,images/rms/f42887_e_058.jpg,main,0.0,P,400.0,False,True,0.0,63.0,63.0,
877.8999998569489,bRMS,28,1037809,,,images/rms/f42887_e_202_1.jpg,reversed,0.0,P,400.0,False,True,0.0,63.0,63.0,
667.1000001430511,bRMS,29,1039259,,,images/rms/f42887_e_258.jpg,main,1.0,Q,400.0,False,True,0.0,63.0,63.0,
630.7999999523163,bRMS,30,1040658,,,images/rms/f42887_e_245.jpg,main,0.0,P,400.0,False,True,0.0,63.0,63.0,
574.0,bRMS,31,1042026,,,images/rms/f42887_e_161.jpg,main,1.0,Q,400.0,False,True,0.0,63.0,63.0,
563.7000000476837,bRMS,32,1043369,,,images/rms/f42887_e_245_1.jpg,reversed,0.0,P,400.0,False,True,0.0,63.0,63.0,
445.9000000953674,bRMS,33,1044580,,,images/rms/f42887_e_295.jpg,main,1.0,Q,400.0,False,True,0.0,63.0,63.0,
941.5999999046326,bRMS,34,1046290,,,images/rms/f42887_e_156_1.jpg,reversed,1.0,Q,400.0,False,True,0.0,63.0,63.0,
726.2999999523163,bRMS,35,1047809,,,images/rms/f42887_e_005.jpg,main,1.0,Q,400.0,False,True,0.0,63.0,63.0,
622.1999998092651,bRMS,36,1049209,,,images/rms/f42887_e_121_1.jpg,reversed,1.0,Q,400.0,False,True,0.0,63.0,63.0,
710.5,bRMS,37,1050706,,,images/rms/f42887_e_103.jpg,main,0.0,P,400.0,False,True,0.0,63.0,63.0,
680.0,bRMS,38,1052194,,,images/rms/f42887_e_278_1.jpg,reversed,0.0,P,400.0,False,True,0.0,63.0,63.0,
829.7999999523163,bRMS,39,1053810,,,images/rms/f42887_e_259_1.jpg,reversed,1.0,Q,400.0,False,True,0.0,63.0,63.0,
796.7999999523163,bRMS,40,1055385,,,images/rms/f42887_e_180.jpg,main,1.0,Q,400.0,False,True,0.0,63.0,63.0,
748.8999998569489,bRMS,41,1056906,,,images/rms/f42887_e_289.jpg,main,1.0,Q,400.0,False,True,0.0,63.0,63.0,
423.2999999523163,bRMS,42,1058106,,,images/rms/f42887_e_028.jpg,main,1.0,Q,400.0,False,True,0.0,63.0,63.0,
437.0,bRMS,43,1059321,,,images/rms/f42887_e_064.jpg,main,1.0,Q,400.0,False,True,0.0,63.0,63.0,
774.2000000476837,bRMS,44,1060873,,,images/rms/f42887_e_098_1.jpg,reversed,0.0,P,400.0,False,True,0.0,63.0,63.0,
985.2999999523164,bRMS,45,1062642,,,images/rms/f42887_e_241_1.jpg,reversed,0.0,P,400.0,False,True,0.0,63.0,63.0,
539.7999999523163,bRMS,46,1063960,,,images/rms/f42887_e_072_1.jpg,reversed,1.0,Q,400.0,False,True,0.0,63.0,63.0,
918.2000000476836,bRMS,47,1065658,,,images/rms/f42887_e_028_1.jpg,reversed,0.0,P,400.0,False,True,0.0,63.0,63.0,
824.5,bRMS,48,1067250,,,images/rms/f42887_e_180_1.jpg,reversed,0.0,P,400.0,False,True,0.0,63.0,63.0,
998.9000000953674,bRMS,49,1069010,,,images/rms/f42887_e_258_1.jpg,reversed,0.0,P,400.0,False,True,0.0,63.0,63.0,
493.5,bRMS,50,1070273,,,images/rms/f42887_e_293.jpg,main,1.0,Q,400.0,False,True,0.0,63.0,63.0,
605.9000000953674,bRMS,51,1071658,,,images/rms/f42887_e_289_1.jpg,reversed,0.0,P,400.0,False,True,0.0,63.0,63.0,
451.9000000953674,bRMS,52,1072890,,,images/rms/f42887_e_121.jpg,main,1.0,Q,400.0,False,True,0.0,63.0,63.0,
422.0,bRMS,53,1074089,,,images/rms/f42887_e_015_1.jpg,reversed,0.0,P,400.0,False,True,0.0,63.0,63.0,
452.59999990463257,bRMS,54,1075323,,,images/rms/f42887_e_103_1.jpg,reversed,0.0,Q,400.0,False,False,0.0,63.0,63.0,
999.2999999523164,bRMS,55,1077090,,,images/rms/f42887_e_140_1.jpg,reversed,0.0,P,400.0,False,True,0.0,63.0,63.0,
605.5,bRMS,56,1078474,,,images/rms/f42887_e_072.jpg,main,1.0,Q,400.0,False,True,0.0,63.0,63.0,
568.4000000953674,bRMS,57,1079818,,,images/rms/f42887_e_296.jpg,main,1.0,Q,400.0,False,True,0.0,63.0,63.0,
718.3999998569489,bRMS,58,1081322,,,images/rms/f42887_e_098.jpg,main,0.0,P,400.0,False,True,0.0,63.0,63.0,
789.9000000953674,bRMS,59,1082890,,,images/rms/f42887_e_297.jpg,main,0.0,P,400.0,False,True,0.0,63.0,63.0,
644.7000000476837,bRMS,60,1084306,,,images/rms/f42887_e_001.jpg,main,1.0,Q,400.0,False,True,0.0,63.0,63.0,
650.4000000953674,bRMS,61,1085737,,,images/rms/f42887_e_259.jpg,main,1.0,Q,400.0,False,True,0.0,63.0,63.0,
454.09999990463257,bRMS,62,1086969,,,images/rms/f42887_e_297_1.jpg,reversed,0.0,P,400.0,False,True,0.0,63.0,63.0,
653.6000001430511,bRMS,63,1088386,,,images/rms/f42887_e_005_1.jpg,reversed,0.0,P,400.0,False,True,0.0,63.0,63.0,
673.1000001430511,bRMS,64,1089834,,,images/rms/f42887_e_278.jpg,main,1.0,Q,400.0,False,True,0.0,63.0,63.0,
1470.0999999046326,bRMS,65,1092074,,,images/rms/f42887_e_080_1.jpg,reversed,1.0,Q,400.0,False,True,0.0,63.0,63.0,
644.2000000476837,bRMS,66,1093489,,,images/rms/f42887_e_298.jpg,main,1.0,Q,400.0,False,True,0.0,63.0,63.0,
891.6000001430511,bRMS,67,1095153,,,images/rms/f42887_e_015.jpg,main,0.0,P,400.0,False,True,0.0,63.0,63.0,
869.5,bRMS,68,1096809,,,images/rms/f42887_e_252.jpg,main,1.0,Q,400.0,False,True,0.0,63.0,63.0,
790.2000000476837,bRMS,69,1098375,,,images/rms/f42887_e_295_1.jpg,reversed,0.0,P,400.0,False,True,0.0,63.0,63.0,
534.0,bRMS,70,1099689,,,images/rms/f42887_e_025.jpg,main,1.0,Q,400.0,False,True,0.0,63.0,63.0,
581.7999999523163,bRMS,71,1101057,,,images/rms/f42887_e_241.jpg,main,1.0,Q,400.0,False,True,0.0,63.0,63.0,
780.6000001430511,bRMS,72,1102618,,,images/rms/f42887_e_127.jpg,main,0.0,P,400.0,False,True,0.0,63.0,63.0,
581.7999999523163,bRMS,73,1103985,,,images/rms/f42887_e_298_1.jpg,reversed,1.0,Q,400.0,False,True,0.0,63.0,63.0,
612.6000001430511,bRMS,74,1105375,,,images/rms/f42887_e_001_1.jpg,reversed,0.0,P,400.0,False,True,0.0,63.0,63.0,
693.4000000953674,bRMS,75,1106850,,,images/rms/f42887_e_156.jpg,main,1.0,Q,400.0,False,True,0.0,63.0,63.0,
645.2999999523163,bRMS,76,1108265,,,images/rms/f42887_e_080.jpg,main,1.0,Q,400.0,False,True,0.0,63.0,63.0,
466.2000000476837,bRMS,77,1109521,,,images/rms/f42887_e_127_1.jpg,reversed,1.0,Q,400.0,False,True,0.0,63.0,63.0,
541.7000000476837,bRMS,78,1110843,,,images/rms/f42887_e_296_1.jpg,reversed,1.0,Q,400.0,False,True,0.0,63.0,63.0,
805.7000000476837,bRMS,79,1112426,,,images/rms/f42887_e_161_1.jpg,reversed,0.0,P,400.0,False,True,0.0,63.0,63.0,
596.0,bRMS,80,1113817,,,images/rms/f42887_e_053.jpg,main,0.0,P,400.0,False,True,0.0,63.0,63.0,
739.7999999523163,bRMS,81,1115338,,,images/rms/f42887_e_053_1.jpg,reversed,1.0,Q,400.0,False,True,0.0,63.0,63.0,
709.2999999523163,bRMS,82,1116842,,,images/rms/f42887_e_064_1.jpg,reversed,0.0,P,400.0,False,True,0.0,63.0,63.0,
629.5,bRMS,83,1118249,,,images/rms/f42887_e_252_1.jpg,reversed,1.0,Q,400.0,False,True,0.0,63.0,63.0,
509.4000000953674,bRMS,84,1119538,,,images/rms/f42887_e_140.jpg,main,0.0,P,400.0,False,True,0.0,63.0,63.0,
6214.0,instructions,85,1126165,,,,,,,,,,,,,
,image-cpt,86,1128793,,,,,,,,,,,,,False
,image-cpt,87,1131426,,,,,,,,,,,,,False
370.0,image-cpt,88,1134560,,,,,,32,,,,,,,True
356.0,image-cpt,89,1138194,,,,,,32,,,,,,,True
,image-cpt,90,1140342,,,,,,,,,,,,,False
,image-cpt,91,1142992,,,,,,,,,,,,,False
,image-cpt,92,1145626,,,,,,,,,,,,,False
,image-cpt,93,1146658,,,,,,,,,,,,,False
482.0,image-cpt,94,1149793,,,,,,32,,,,,,,True
,image-cpt,95,1153427,,,,,,,,,,,,,False
,image-cpt,96,1156559,,,,,,,,,,,,,False
,image-cpt,97,1159693,,,,,,,,,,,,,False
,image-cpt,98,1161826,,,,,,,,,,,,,False
451.0,image-cpt,99,1165459,,,,,,32,,,,,,,True
,image-cpt,100,1167608,,,,,,,,,,,,,False
2493.0,instructions,101,1170101,,,,,,,,,,,,,
,image-cpt,102,1172240,,,,,,,,,,,,,False
373.0,image-cpt,103,1175873,,,,,,32,,,,,,,True
,image-cpt,104,1179522,,,,,,,,,,,,,False
,image-cpt,105,1181656,,,,,,,,,,,,,False
,image-cpt,106,1183806,,,,,,,,,,,,,False
,image-cpt,107,1186456,,,,,,,,,,,,,False
,image-cpt,108,1190088,,,,,,,,,,,,,False
,image-cpt,109,1192239,,,,,,,,,,,,,False
,image-cpt,110,1195888,,,,,,,,,,,,,False
,image-cpt,111,1199538,,,,,,,,,,,,,False
,image-cpt,112,1202688,,,,,,,,,,,,,False
,image-cpt,113,1205338,,,,,,,,,,,,,False
,image-cpt,114,1207488,,,,,,,,,,,,,False
405.0,image-cpt,115,1210637,,,,,,32,,,,,,,True
391.0,image-cpt,116,1213787,,,,,,32,,,,,,,True
458.0,image-cpt,117,1217437,,,,,,32,,,,,,,True
,image-cpt,118,1219587,,,,,,,,,,,,,False
482.0,image-cpt,119,1222237,,,,,,32,,,,,,,True
,image-cpt,120,1225887,,,,,,,,,,,,,False
342.0,image-cpt,121,1228521,,,,,,32,,,,,,,True
,image-cpt,122,1231670,,,,,,,,,,,,,False
,image-cpt,123,1233820,,,,,,,,,,,,,False
,image-cpt,124,1237470,,,,,,,,,,,,,False
423.0,image-cpt,125,1239619,,,,,,32,,,,,,,True
,image-cpt,126,1241753,,,,,,,,,,,,,False
,image-cpt,127,1244902,,,,,,,,,,,,,False
,image-cpt,128,1248052,,,,,,,,,,,,,False
,image-cpt,129,1251202,,,,,,,,,,,,,False
,image-cpt,130,1253852,,,,,,,,,,,,,False
376.0,image-cpt,131,1256002,,,,,,32,,,,,,,True
,image-cpt,132,1259152,,,,,,,,,,,,,False
,image-cpt,133,1262302,,,,,,,,,,,,,False
,image-cpt,134,1264952,,,,,,,,,,,,,False
,image-cpt,135,1267102,,,,,,,,,,,,,False
,image-cpt,136,1269752,,,,,,,,,,,,,False
364.0,image-cpt,137,1272402,,,,,,32,,,,,,,True
,image-cpt,138,1276052,,,,,,,,,,,,,False
,image-cpt,139,1279185,,,,,,,,,,,,,False
,image-cpt,140,1282334,,,,,,,,,,,,,False
,image-cpt,141,1284969,,,,,,,,,,,,,False
395.0,image-cpt,142,1287118,,,,,,32,,,,,,,True
,image-cpt,143,1289268,,,,,,,,,,,,,False
400.0,image-cpt,144,1291918,,,,,,32,,,,,,,True
343.0,image-cpt,145,1295568,,,,,,32,,,,,,,True
,image-cpt,146,1298201,,,,,,,,,,,,,False
300.0,image-cpt,147,1301350,,,,,,32,,,,,,,True
,image-cpt,148,1305000,,,,,,,,,,,,,False
,image-cpt,149,1308151,,,,,,,,,,,,,False
382.0,image-cpt,150,1310800,,,,,,32,,,,,,,True
,image-cpt,151,1313950,,,,,,,,,,,,,False
,image-cpt,152,1317600,,,,,,,,,,,,,False
,image-cpt,153,1321233,,,,,,,,,,,,,False
,image-cpt,154,1324883,,,,,,,,,,,,,False
,image-cpt,155,1328532,,,,,,,,,,,,,False
,image-cpt,156,1331182,,,,,,,,,,,,,False
,image-cpt,157,1333832,,,,,,,,,,,,,False
397.0,image-cpt,158,1335982,,,,,,32,,,,,,,True
,image-cpt,159,1339132,,,,,,,,,,,,,False
425.0,image-cpt,160,1342282,,,,,,32,,,,,,,True
,image-cpt,161,1344931,,,,,,,,,,,,,False
,image-cpt,162,1348064,,,,,,,,,,,,,False
,image-cpt,163,1351215,,,,,,,,,,,,,False
470.0,image-cpt,164,1354364,,,,,,32,,,,,,,True
392.0,image-cpt,165,1357015,,,,,,32,,,,,,,True
,image-cpt,166,1359664,,,,,,,,,,,,,False
340.0,image-cpt,167,1361814,,,,,,32,,,,,,,True
,image-cpt,168,1364964,,,,,,,,,,,,,False
,image-cpt,169,1368114,,,,,,,,,,,,,False
371.0,image-cpt,170,1371264,,,,,,32,,,,,,,True
,image-cpt,171,1374414,,,,,,,,,,,,,False
,image-cpt,172,1378064,,,,,,,,,,,,,False
,image-cpt,173,1381713,,,,,,,,,,,,,False
339.0,image-cpt,174,1384863,,,,,,32,,,,,,,True
,image-cpt,175,1388013,,,,,,,,,,,,,False
329.0,image-cpt,176,1390664,,,,,,32,,,,,,,True
,image-cpt,177,1394297,,,,,,,,,,,,,False
,image-cpt,178,1396947,,,,,,,,,,,,,False
419.0,image-cpt,179,1399097,,,,,,32,,,,,,,True
,image-cpt,180,1401746,,,,,,,,,,,,,False
339.0,image-cpt,181,1404896,,,,,,32,,,,,,,True
,image-cpt,182,1407046,,,,,,,,,,,,,False
,image-cpt,183,1410196,,,,,,,,,,,,,False
,image-cpt,184,1412329,,,,,,,,,,,,,False
,image-cpt,185,1414479,,,,,,,,,,,,,False
,image-cpt,186,1417629,,,,,,,,,,,,,False
,image-cpt,187,1420279,,,,,,,,,,,,,False
431.0,image-cpt,188,1422429,,,,,,32,,,,,,,True
,image-cpt,189,1426079,,,,,,,,,,,,,False
359.0,image-cpt,190,1428728,,,,,,32,,,,,,,True
,image-cpt,191,1432379,,,,,,,,,,,,,False
,image-cpt,192,1434528,,,,,,,,,,,,,False
501.0,image-cpt,193,1437178,,,,,,32,,,,,,,True
,image-cpt,194,1440828,,,,,,,,,,,,,False
,image-cpt,195,1442961,,,,,,,,,,,,,False
,image-cpt,196,1445111,,,,,,,,,,,,,False
,image-cpt,197,1448743,,,,,,,,,,,,,False
,image-cpt,198,1452377,,,,,,,,,,,,,False
,image-cpt,199,1454527,,,,,,,,,,,,,False
,image-cpt,200,1458161,,,,,,,,,,,,,False
,image-cpt,201,1460810,,,,,,,,,,,,,False
,image-cpt,202,1462944,,,,,,,,,,,,,False
,image-cpt,203,1465093,,,,,,,,,,,,,False
,image-cpt,204,1468743,,,,,,,,,,,,,False
,image-cpt,205,1470893,,,,,,,,,,,,,False
,image-cpt,206,1474027,,,,,,,,,,,,,False
,image-cpt,207,1477176,,,,,,,,,,,,,False
,image-cpt,208,1479825,,,,,,,,,,,,,False
,image-cpt,209,1482976,,,,,,,,,,,,,False
453.0,image-cpt,210,1486125,,,,,,32,,,,,,,True
,image-cpt,211,1488775,,,,,,,,,,,,,False
381.0,image-cpt,212,1491925,,,,,,32,,,,,,,True
,image-cpt,213,1494575,,,,,,,,,,,,,False
,image-cpt,214,1497725,,,,,,,,,,,,,False
,image-cpt,215,1501374,,,,,,,,,,,,,False
325.0,image-cpt,216,1503524,,,,,,32,,,,,,,True
,image-cpt,217,1505674,,,,,,,,,,,,,False
,image-cpt,218,1508325,,,,,,,,,,,,,False
353.0,image-cpt,219,1510975,,,,,,32,,,,,,,True
,image-cpt,220,1513625,,,,,,,,,,,,,False
317.0,image-cpt,221,1515775,,,,,,32,,,,,,,True
,image-cpt,222,1517925,,,,,,,,,,,,,False
,image-cpt,223,1520575,,,,,,,,,,,,,False
407.0,image-cpt,224,1522725,,,,,,32,,,,,,,True
,image-cpt,225,1525375,,,,,,,,,,,,,False
,image-cpt,226,1528024,,,,,,,,,,,,,False
,image-cpt,227,1531174,,,,,,,,,,,,,False
,image-cpt,228,1533324,,,,,,,,,,,,,False
,image-cpt,229,1535457,,,,,,,,,,,,,False
531.0,image-cpt,230,1538107,,,,,,32,,,,,,,True
,image-cpt,231,1541757,,,,,,,,,,,,,False
,image-cpt,232,1544907,,,,,,,,,,,,,False
,image-cpt,233,1547557,,,,,,,,,,,,,False
,image-cpt,234,1549707,,,,,,,,,,,,,False
,image-cpt,235,1551857,,,,,,,,,,,,,False
,image-cpt,236,1555507,,,,,,,,,,,,,False
,image-cpt,237,1558657,,,,,,,,,,,,,False
341.0,image-cpt,238,1561306,,,,,,32,,,,,,,True
,image-cpt,239,1563956,,,,,,,,,,,,,False
,image-cpt,240,1567606,,,,,,,,,,,,,False
,image-cpt,241,1570255,,,,,,,,,,,,,False
,image-cpt,242,1572405,,,,,,,,,,,,,False
,image-cpt,243,1575555,,,,,,,,,,,,,False
,image-cpt,244,1579205,,,,,,,,,,,,,False
,image-cpt,245,1582355,,,,,,,,,,,,,False
338.0,image-cpt,246,1585004,,,,,,32,,,,,,,True
,image-cpt,247,1587155,,,,,,,,,,,,,False
,image-cpt,248,1590289,,,,,,,,,,,,,False
,image-cpt,249,1592437,,,,,,,,,,,,,False
415.0,image-cpt,250,1595088,,,,,,32,,,,,,,True
373.0,image-cpt,251,1598738,,,,,,32,,,,,,,True
,image-cpt,252,1600887,,,,,,,,,,,,,False
461.0,image-cpt,253,1604037,,,,,,32,,,,,,,True
,image-cpt,254,1606687,,,,,,,,,,,,,False
,image-cpt,255,1609837,,,,,,,,,,,,,False
,image-cpt,256,1612486,,,,,,,,,,,,,False
,image-cpt,257,1614636,,,,,,,,,,,,,False
,image-cpt,258,1617286,,,,,,,,,,,,,False
,image-cpt,259,1619921,,,,,,,,,,,,,False
,image-cpt,260,1623070,,,,,,,,,,,,,False
,image-cpt,261,1626719,,,,,,,,,,,,,False
,image-cpt,262,1629870,,,,,,,,,,,,,False
,image-cpt,263,1633020,,,,,,,,,,,,,False
,image-cpt,264,1636153,,,,,,,,,,,,,False
,image-cpt,265,1638803,,,,,,,,,,,,,False
,image-cpt,266,1641453,,,,,,,,,,,,,False
,image-cpt,267,1643602,,,,,,,,,,,,,False
,image-cpt,268,1646252,,,,,,,,,,,,,False
,image-cpt,269,1648902,,,,,,,,,,,,,False
,image-cpt,270,1652052,,,,,,,,,,,,,False
,image-cpt,271,1655702,,,,,,,,,,,,,False
,image-cpt,272,1657852,,,,,,,,,,,,,False
490.0,image-cpt,273,1659985,,,,,,32,,,,,,,True
485.0,image-cpt,274,1662135,,,,,,32,,,,,,,True
,image-cpt,275,1665785,,,,,,,,,,,,,False
413.0,image-cpt,276,1668435,,,,,,32,,,,,,,True
,image-cpt,277,1671585,,,,,,,,,,,,,False
,image-cpt,278,1674734,,,,,,,,,,,,,False
,image-cpt,279,1676884,,,,,,,,,,,,,False
,image-cpt,280,1679034,,,,,,,,,,,,,False
411.0,image-cpt,281,1681685,,,,,,32,,,,,,,True
417.0,image-cpt,282,1684334,,,,,,32,,,,,,,True
,image-cpt,283,1686984,,,,,,,,,,,,,False
365.0,image-cpt,284,1690134,,,,,,32,,,,,,,True
384.0,image-cpt,285,1692784,,,,,,32,,,,,,,True
389.0,image-cpt,286,1694934,,,,,,32,,,,,,,True
,image-cpt,287,1697583,,,,,,,,,,,,,False
,image-cpt,288,1699734,,,,,,,,,,,,,False
,image-cpt,289,1703384,,,,,,,,,,,,,False
350.0,image-cpt,290,1706018,,,,,,32,,,,,,,True
,image-cpt,291,1708166,,,,,,,,,,,,,False
,image-cpt,292,1711816,,,,,,,,,,,,,False
333.0,image-cpt,293,1715450,,,,,,32,,,,,,,True
,image-cpt,294,1719100,,,,,,,,,,,,,False
,image-cpt,295,1721234,,,,,,,,,,,,,False
52.0,image-cpt,296,1724382,,,,,,32,,,,,,,True
,image-cpt,297,1726532,,,,,,,,,,,,,False
,image-cpt,298,1729182,,,,,,,,,,,,,False
,image-cpt,299,1731332,,,,,,,,,,,,,False
,image-cpt,300,1734982,,,,,,,,,,,,,False
,image-cpt,301,1737132,,,,,,,,,,,,,False
,image-cpt,302,1740265,,,,,,,,,,,,,False
,image-cpt,303,1742915,,,,,,,,,,,,,False
,image-cpt,304,1745049,,,,,,,,,,,,,False
,image-cpt,305,1747198,,,,,,,,,,,,,False
,image-cpt,306,1750348,,,,,,,,,,,,,False
345.0,image-cpt,307,1752998,,,,,,32,,,,,,,True
,image-cpt,308,1756648,,,,,,,,,,,,,False
334.0,image-cpt,309,1760281,,,,,,32,,,,,,,True
,image-cpt,310,1763931,,,,,,,,,,,,,False
,image-cpt,311,1767580,,,,,,,,,,,,,False
,image-cpt,312,1771230,,,,,,,,,,,,,False
343.0,image-cpt,313,1774380,,,,,,32,,,,,,,True
,image-cpt,314,1778030,,,,,,,,,,,,,False
,image-cpt,315,1780680,,,,,,,,,,,,,False
,image-cpt,316,1784314,,,,,,,,,,,,,False
,image-cpt,317,1787463,,,,,,,,,,,,,False
,image-cpt,318,1791113,,,,,,,,,,,,,False
397.0,image-cpt,319,1794263,,,,,,32,,,,,,,True
367.0,image-cpt,320,1796913,,,,,,32,,,,,,,True
373.0,image-cpt,321,1800562,,,,,,32,,,,,,,True
291.0,image-cpt,322,1804212,,,,,,32,,,,,,,True
306.0,image-cpt,323,1806862,,,,,,32,,,,,,,True
,image-cpt,324,1809512,,,,,,,,,,,,,False
,image-cpt,325,1812661,,,,,,,,,,,,,False
320.0,image-cpt,326,1815311,,,,,,32,,,,,,,True
,image-cpt,327,1817945,,,,,,,,,,,,,False
,image-cpt,328,1821594,,,,,,,,,,,,,False
,image-cpt,329,1825244,,,,,,,,,,,,,False
,image-cpt,330,1828894,,,,,,,,,,,,,False
327.0,image-cpt,331,1832544,,,,,,32,,,,,,,True
,image-cpt,332,1835193,,,,,,,,,,,,,False
411.0,image-cpt,333,1838843,,,,,,32,,,,,,,True
,image-cpt,334,1840977,,,,,,,,,,,,,False
,image-cpt,335,1844627,,,,,,,,,,,,,False
,image-cpt,336,1848276,,,,,,,,,,,,,False
,image-cpt,337,1851926,,,,,,,,,,,,,False
,image-cpt,338,1855076,,,,,,,,,,,,,False
,image-cpt,339,1857726,,,,,,,,,,,,,False
,image-cpt,340,1859876,,,,,,,,,,,,,False
,image-cpt,341,1863526,,,,,,,,,,,,,False
367.0,image-cpt,342,1866675,,,,,,32,,,,,,,True
,image-cpt,343,1870326,,,,,,,,,,,,,False
447.0,image-cpt,344,1872975,,,,,,32,,,,,,,True
,image-cpt,345,1876125,,,,,,,,,,,,,False
424.0,image-cpt,346,1879775,,,,,,32,,,,,,,True
341.0,image-cpt,347,1882409,,,,,,32,,,,,,,True
,image-cpt,348,1885558,,,,,,,,,,,,,False
,image-cpt,349,1888708,,,,,,,,,,,,,False
,image-cpt,350,1891358,,,,,,,,,,,,,False
,image-cpt,351,1894507,,,,,,,,,,,,,False
393.0,image-cpt,352,1898158,,,,,,32,,,,,,,True
,image-cpt,353,1900308,,,,,,,,,,,,,False
,image-cpt,354,1903957,,,,,,,,,,,,,False
320.0,image-cpt,355,1907607,,,,,,32,,,,,,,True
,image-cpt,356,1909757,,,,,,,,,,,,,False
,image-cpt,357,1911907,,,,,,,,,,,,,False
369.0,image-cpt,358,1915040,,,,,,32,,,,,,,True
532.0,image-cpt,359,1918190,,,,,,32,,,,,,,True
,image-cpt,360,1921840,,,,,,,,,,,,,False
389.0,image-cpt,361,1923990,,,,,,32,,,,,,,True
382.0,image-cpt,362,1926640,,,,,,32,,,,,,,True
277.0,image-cpt,363,1929290,,,,,,32,,,,,,,True
,image-cpt,364,1931939,,,,,,,,,,,,,False
,image-cpt,365,1935590,,,,,,,,,,,,,False
,image-cpt,366,1938740,,,,,,,,,,,,,False
,image-cpt,367,1941389,,,,,,,,,,,,,False
,image-cpt,368,1944039,,,,,,,,,,,,,False
430.0,image-cpt,369,1947189,,,,,,32,,,,,,,True
400.0,image-cpt,370,1949839,,,,,,32,,,,,,,True
,image-cpt,371,1952988,,,,,,,,,,,,,False
,image-cpt,372,1955638,,,,,,,,,,,,,False
431.0,image-cpt,373,1959273,,,,,,32,,,,,,,True
,image-cpt,374,1962421,,,,,,,,,,,,,False
,image-cpt,375,1965571,,,,,,,,,,,,,False
,image-cpt,376,1967705,,,,,,,,,,,,,False
380.0,image-cpt,377,1971355,,,,,,32,,,,,,,True
,image-cpt,378,1975005,,,,,,,,,,,,,False
,image-cpt,379,1977654,,,,,,,,,,,,,False
,image-cpt,380,1978671,,,,,,,,,,,,,False
375.0,image-cpt,381,1981820,,,,,,32,,,,,,,True
424.0,image-cpt,382,1983971,,,,,,32,,,,,,,True
,image-cpt,383,1987621,,,,,,,,,,,,,False
,image-cpt,384,1989771,,,,,,,,,,,,,False
427.0,image-cpt,385,1993420,,,,,,32,,,,,,,True
345.0,image-cpt,386,1997070,,,,,,32,,,,,,,True
422.0,image-cpt,387,1999720,,,,,,32,,,,,,,True
333.0,image-cpt,388,2001870,,,,,,32,,,,,,,True
,image-cpt,389,2005520,,,,,,,,,,,,,False
325.0,image-cpt,390,2008670,,,,,,32,,,,,,,True
391.0,image-cpt,391,2011819,,,,,,32,,,,,,,False
314.0,image-cpt,392,2013952,,,,,,32,,,,,,,True
340.0,image-cpt,393,2016102,,,,,,32,,,,,,,True
286.0,image-cpt,394,2018252,,,,,,32,,,,,,,True
328.0,image-cpt,395,2021902,,,,,,32,,,,,,,True
327.0,image-cpt,396,2025552,,,,,,32,,,,,,,True
372.0,image-cpt,397,2029202,,,,,,32,,,,,,,False
354.0,image-cpt,398,2031352,,,,,,32,,,,,,,True
,image-cpt,399,2033502,,,,,,,,,,,,,False
,image-cpt,400,2036652,,,,,,,,,,,,,False
,image-cpt,401,2038801,,,,,,,,,,,,,False
403.0,image-cpt,402,2040951,,,,,,32,,,,,,,True
,image-cpt,403,2043101,,,,,,,,,,,,,False
,image-cpt,404,2046751,,,,,,,,,,,,,False
341.0,image-cpt,405,2049401,,,,,,32,,,,,,,True
363.0,image-cpt,406,2051551,,,,,,32,,,,,,,True
374.0,image-cpt,407,2053701,,,,,,32,,,,,,,True
,image-cpt,408,2056351,,,,,,,,,,,,,False
,image-cpt,409,2058501,,,,,,,,,,,,,False
,image-cpt,410,2059517,,,,,,,,,,,,,False
,image-cpt,411,2062667,,,,,,,,,,,,,False
,image-cpt,412,2065800,,,,,,,,,,,,,False
397.0,image-cpt,413,2067950,,,,,,32,,,,,,,True
,image-cpt,414,2071100,,,,,,,,,,,,,False
,image-cpt,415,2074250,,,,,,,,,,,,,False
364.0,image-cpt,416,2077900,,,,,,32,,,,,,,True
,image-cpt,417,2081050,,,,,,,,,,,,,False
,image-cpt,418,2084699,,,,,,,,,,,,,False
,image-cpt,419,2088349,,,,,,,,,,,,,False
,image-cpt,420,2090499,,,,,,,,,,,,,False
530.0,image-cpt,421,2093633,,,,,,32,,,,,,,True
16443.0,instructions,422,2110077,,,,,,,,,,,,,
1342.7000000476835,bRMS,423,2111777,,,images/rms/f42887_e_258_1.jpg,control_reversed,1.0,Q,400.0,False,True,0.0,63.0,63.0,
1791.2999999523165,bRMS,424,2114344,,,images/rms/f42887_e_005_1.jpg,control_reversed,0.0,P,400.0,False,True,0.0,63.0,63.0,
1206.6999998092651,bRMS,425,2116329,,,images/rms/f42887_e_028.jpg,control_main,1.0,Q,400.0,False,True,0.0,63.0,63.0,
1175.0,bRMS,426,2118281,,,images/rms/f42887_e_180_1.jpg,control_reversed,1.0,Q,400.0,False,True,0.0,63.0,63.0,
614.7000000476837,bRMS,427,2119674,,,images/rms/f42887_e_298.jpg,control_main,0.0,P,400.0,False,True,0.0,63.0,63.0,
751.0,bRMS,428,2121197,,,images/rms/f42887_e_025_1.jpg,control_reversed,0.0,P,400.0,False,True,0.0,63.0,63.0,
1078.5,bRMS,429,2123042,,,images/rms/f42887_e_289_1.jpg,control_reversed,1.0,Q,400.0,False,True,0.0,63.0,63.0,
1142.9000000953674,bRMS,430,2124949,,,images/rms/f42887_e_140.jpg,control_main,1.0,Q,400.0,False,True,0.0,63.0,63.0,
926.0,bRMS,431,2126666,,,images/rms/f42887_e_058_1.jpg,control_reversed,1.0,Q,400.0,False,True,0.0,63.0,63.0,
719.0,bRMS,432,2128162,,,images/rms/f42887_e_015.jpg,control_main,1.0,Q,400.0,False,True,0.0,63.0,63.0,
3470.100000143051,bRMS,433,2132409,,,images/rms/f42887_e_058.jpg,control_main,1.0,Q,400.0,False,True,0.0,63.0,63.0,
7796.5,bRMS,434,2140977,,,images/rms/f42887_e_121.jpg,control_main,0.0,P,400.0,False,True,0.0,63.0,63.0,
860.7000000476837,bRMS,435,2142609,,,images/rms/f42887_e_005.jpg,control_main,0.0,P,400.0,False,True,0.0,63.0,63.0,
642.2000000476837,bRMS,436,2144041,,,images/rms/f42887_e_064_1.jpg,control_reversed,0.0,P,400.0,False,True,0.0,63.0,63.0,
631.6999998092651,bRMS,437,2145441,,,images/rms/f42887_e_072.jpg,control_main,0.0,P,400.0,False,True,0.0,63.0,63.0,
1222.2000000476835,bRMS,438,2147442,,,images/rms/f42887_e_202.jpg,control_main,1.0,Q,400.0,False,True,0.0,63.0,63.0,
632.3999998569489,bRMS,439,2148857,,,images/rms/f42887_e_202_1.jpg,control_reversed,1.0,Q,400.0,False,True,0.0,63.0,63.0,
602.7999999523163,bRMS,440,2150242,,,images/rms/f42887_e_156_1.jpg,control_reversed,0.0,P,400.0,False,True,0.0,63.0,63.0,
799.2999999523163,bRMS,441,2151825,,,images/rms/f42887_e_252.jpg,control_main,1.0,Q,400.0,False,True,0.0,63.0,63.0,
527.2999999523163,bRMS,442,2153121,,,images/rms/f42887_e_295.jpg,control_main,0.0,P,400.0,False,True,0.0,63.0,63.0,
550.2999999523163,bRMS,443,2154457,,,images/rms/f42887_e_298_1.jpg,control_reversed,0.0,P,400.0,False,True,0.0,63.0,63.0,
567.4000000953674,bRMS,444,2155794,,,images/rms/f42887_e_025.jpg,control_main,0.0,P,400.0,False,True,0.0,63.0,63.0,
765.9000000953674,bRMS,445,2157329,,,images/rms/f42887_e_103_1.jpg,control_reversed,1.0,Q,400.0,False,True,0.0,63.0,63.0,
607.0,bRMS,446,2158714,,,images/rms/f42887_e_015_1.jpg,control_reversed,0.0,P,400.0,False,True,0.0,63.0,63.0,
551.5,bRMS,447,2160058,,,images/rms/f42887_e_127.jpg,control_main,0.0,P,400.0,False,True,0.0,63.0,63.0,
631.1999998092651,bRMS,448,2161457,,,images/rms/f42887_e_053_1.jpg,control_reversed,1.0,Q,400.0,False,True,0.0,63.0,63.0,
647.5999999046326,bRMS,449,2162890,,,images/rms/f42887_e_140_1.jpg,control_reversed,0.0,P,400.0,False,True,0.0,63.0,63.0,
885.0,bRMS,450,2164547,,,images/rms/f42887_e_241_1.jpg,control_reversed,0.0,P,400.0,False,True,0.0,63.0,63.0,
748.2999999523163,bRMS,451,2166074,,,images/rms/f42887_e_293_1.jpg,control_reversed,0.0,P,400.0,False,True,0.0,63.0,63.0,
599.0,bRMS,452,2167442,,,images/rms/f42887_e_121_1.jpg,control_reversed,0.0,P,400.0,False,True,0.0,63.0,63.0,
752.6999998092651,bRMS,453,2168978,,,images/rms/f42887_e_001.jpg,control_main,1.0,Q,400.0,False,True,0.0,63.0,63.0,
622.8999998569489,bRMS,454,2170377,,,images/rms/f42887_e_295_1.jpg,control_reversed,0.0,P,400.0,False,True,0.0,63.0,63.0,
983.0999999046326,bRMS,455,2172128,,,images/rms/f42887_e_296_1.jpg,control_reversed,1.0,Q,400.0,False,True,0.0,63.0,63.0,
414.5,bRMS,456,2173313,,,images/rms/f42887_e_258.jpg,control_main,1.0,P,400.0,False,False,0.0,63.0,63.0,
334.7999999523163,bRMS,457,2174426,,,images/rms/f42887_e_297_1.jpg,control_reversed,1.0,Q,400.0,False,True,0.0,63.0,63.0,
852.0999999046326,bRMS,458,2176057,,,images/rms/f42887_e_053.jpg,control_main,0.0,P,400.0,False,True,0.0,63.0,63.0,
806.8999998569489,bRMS,459,2177642,,,images/rms/f42887_e_296.jpg,control_main,1.0,Q,400.0,False,True,0.0,63.0,63.0,
1230.2999999523165,bRMS,460,2179657,,,images/rms/f42887_e_080.jpg,control_main,0.0,P,400.0,False,True,0.0,63.0,63.0,
1303.5,bRMS,461,2181729,,,images/rms/f42887_e_278.jpg,control_main,0.0,P,400.0,False,True,0.0,63.0,63.0,
1773.5,bRMS,462,2184273,,,images/rms/f42887_e_259.jpg,control_main,1.0,P,400.0,False,False,0.0,63.0,63.0,
964.5,bRMS,463,2186026,,,images/rms/f42887_e_245_1.jpg,control_reversed,0.0,P,400.0,False,True,0.0,63.0,63.0,
948.1000001430511,bRMS,464,2187762,,,images/rms/f42887_e_080_1.jpg,control_reversed,0.0,P,400.0,False,True,0.0,63.0,63.0,
479.5,bRMS,465,2189025,,,images/rms/f42887_e_241.jpg,control_main,0.0,P,400.0,False,True,0.0,63.0,63.0,
575.5,bRMS,466,2190410,,,images/rms/f42887_e_098.jpg,control_main,0.0,P,400.0,False,True,0.0,63.0,63.0,
1001.2999999523164,bRMS,467,2192186,,,images/rms/f42887_e_103.jpg,control_main,0.0,P,400.0,False,True,0.0,63.0,63.0,
318.7000000476837,bRMS,468,2193278,,,images/rms/f42887_e_252_1.jpg,control_reversed,0.0,P,400.0,False,True,0.0,63.0,63.0,
902.8999998569489,bRMS,469,2194953,,,images/rms/f42887_e_098_1.jpg,control_reversed,1.0,Q,400.0,False,True,0.0,63.0,63.0,
758.5,bRMS,470,2196489,,,images/rms/f42887_e_156.jpg,control_main,1.0,Q,400.0,False,True,0.0,63.0,63.0,
502.09999990463257,bRMS,471,2197770,,,images/rms/f42887_e_289.jpg,control_main,1.0,Q,400.0,False,True,0.0,63.0,63.0,
879.2000000476837,bRMS,472,2199428,,,images/rms/f42887_e_127_1.jpg,control_reversed,0.0,P,400.0,False,True,0.0,63.0,63.0,
829.8999998569489,bRMS,473,2201025,,,images/rms/f42887_e_072_1.jpg,control_reversed,1.0,Q,400.0,False,True,0.0,63.0,63.0,
595.3999998569489,bRMS,474,2202410,,,images/rms/f42887_e_297.jpg,control_main,1.0,Q,400.0,False,True,0.0,63.0,63.0,
547.7999999523163,bRMS,475,2203738,,,images/rms/f42887_e_064.jpg,control_main,1.0,Q,400.0,False,True,0.0,63.0,63.0,
6015.200000047684,bRMS,476,2210537,,,images/rms/f42887_e_161_1.jpg,control_reversed,1.0,Q,400.0,False,True,0.0,63.0,63.0,
493.2999999523163,bRMS,477,2211817,,,images/rms/f42887_e_259_1.jpg,control_reversed,1.0,Q,400.0,False,True,0.0,63.0,63.0,
510.7999999523163,bRMS,478,2213122,,,images/rms/f42887_e_245.jpg,control_main,1.0,Q,400.0,False,True,0.0,63.0,63.0,
-1.0,bRMS,479,2223874,,,images/rms/f42887_e_028_1.jpg,control_reversed,1.0,-1,400.0,False,False,0.0,63.0,63.0,
-1.0,bRMS,480,2234625,,,images/rms/f42887_e_161.jpg,control_main,1.0,-1,400.0,False,False,0.0,63.0,63.0,
3054.200000047684,bRMS,481,2238457,,,images/rms/f42887_e_278_1.jpg,control_reversed,1.0,Q,400.0,False,True,0.0,63.0,63.0,
1543.4000000953674,bRMS,482,2240776,,,images/rms/f42887_e_001_1.jpg,control_reversed,0.0,P,400.0,False,True,0.0,63.0,63.0,
615.2999999523163,bRMS,483,2242169,,,images/rms/f42887_e_180.jpg,control_main,1.0,Q,400.0,False,True,0.0,63.0,63.0,
496.0,bRMS,484,2243450,,,images/rms/f42887_e_293.jpg,control_main,0.0,P,400.0,False,True,0.0,63.0,63.0,
10985.0,instructions,485,2254838,,,,,,,,,,,,,
36863.0,survey-likert,486,2291702,"{""Q0"":1,""Q1"":2,""Q2"":1}",ASRS_2_0,,,,,,,,,,,
12479.0,survey-likert,487,2304182,"{""Q0"":1,""Q1"":1,""Q2"":0}",ASRS_2_3,,,,,,,,,,,
8807.0,survey-likert,488,2312990,"{""Q0"":1,""Q1"":1,""Q2"":1}",ASRS_2_9,,,,,,,,,,,
14272.0,survey-likert,489,2327262,"{""Q0"":2,""Q1"":1,""Q2"":1}",ASRS_1_0,,,,,,,,,,,
19839.0,survey-likert,490,2347102,"{""Q0"":2,""Q1"":1,""Q2"":0}",ASRS_1_3,,,,,,,,,,,
11104.0,survey-likert,491,2358206,"{""Q0"":1,""Q1"":2,""Q2"":1}",ASRS_2_6,,,,,,,,,,,
6103.0,survey-likert,492,2364310,"{""Q0"":4}",LAST_1,,,,,,,,,,,
4847.0,survey-multi-choice,493,2369158,"{""Q0"":""כן""}",,,,,,,,,,,,
15327.0,survey-text,494,2384486,"{""Q0"":""להתסכל על צד אחד ורק אם אני לא רואה לעבור לצד האחר""}",,,,,,,,,,,,
3360.0,survey-likert,495,2387846,"{""Q0"":4}",LAST_4,,,,,,,,,,,
1302.0,survey-multi-choice,496,2389150,"{""Q0"":""לא""}",,,,,,,,,,,,
1088.0,survey-text,497,2390238,"{""Q0"":""""}",,,,,,,,,,,,
8744.0,survey-likert,498,2398982,"{""Q0"":5}",DRIVE_1,,,,,,,,,,,
6176.0,survey-text,499,2405158,"{""Q0"":""1""}",,,,,,,,,,,,
4808.0,survey-text,500,2409966,"{""Q0"":""0""}",,,,,,,,,,,,
1048.0,instructions,501,2411014,,,,,,,,,,,,,
