rt,trial_type,trial_index,time_elapsed,responses,name,stimulus,stimulus_block,stimulus_side,key_press,time_post_trial,is_fullscreen,correct,trial_began,block,sub_block,is_stimulus
23902.0,instructions,0,23902,,,,,,,,,,,,,
6126.0,survey-multi-choice,1,30030,"{""Q0"":""אישה"",""Q1"":""ימין"",""Q2"":""עברית""}",,,,,,,,,,,,
6760.0,survey-text,2,36790,"{""Q0"":""23"",""Q1"":""7""}",,,,,,,,,,,,
2231.0,survey-multi-choice,3,39022,"{""Q0"":""לא""}",,,,,,,,,,,,
15416.0,survey-likert,4,54438,"{""Q0"":2}",attention_2,,,,,,,,,,,
73607.0,instructions,5,128046,,,,,,,,,,,,,
-1.0,bRMS,6,138398,,,images/rms/f42887_e_001.jpg,training,0.0,-1,400.0,False,False,0.0,63.0,63.0,
2865.70000000298,bRMS,7,142062,,,images/rms/f42887_e_001.jpg,training,1.0,Q,400.0,False,True,0.0,63.0,63.0,
994.0,bRMS,8,143829,,,images/rms/f42887_e_001.jpg,training,0.0,P,400.0,False,True,0.0,63.0,63.0,
2042.0,bRMS,9,146645,,,images/rms/f42887_e_001.jpg,training,0.0,P,400.0,False,True,0.0,63.0,63.0,
903.5,bRMS,10,148325,,,images/rms/f42887_e_001.jpg,training,0.0,P,400.0,False,True,0.0,63.0,63.0,
1097.2999999970198,bRMS,11,150197,,,images/rms/f42887_e_001.jpg,training,0.0,P,400.0,False,True,0.0,63.0,63.0,
761.7999999970198,bRMS,12,151741,,,images/rms/f42887_e_001.jpg,training,1.0,Q,400.0,False,True,0.0,63.0,63.0,
769.5999999940395,bRMS,13,153293,,,images/rms/f42887_e_001.jpg,training,0.0,P,400.0,False,True,0.0,63.0,63.0,
1009.9000000059604,bRMS,14,155077,,,images/rms/f42887_e_001.jpg,training,1.0,Q,400.0,False,True,0.0,63.0,63.0,
1578.5,bRMS,15,157430,,,images/rms/f42887_e_001.jpg,training,1.0,Q,400.0,False,True,0.0,63.0,63.0,
952.7999999970198,bRMS,16,159158,,,images/rms/f42887_e_001.jpg,training,1.0,Q,400.0,False,True,0.0,63.0,63.0,
713.0,bRMS,17,160645,,,images/rms/f42887_e_001.jpg,training,1.0,Q,400.0,False,True,0.0,63.0,63.0,
1417.5,bRMS,18,162845,,,images/rms/f42887_e_001.jpg,training,1.0,Q,400.0,False,True,0.0,63.0,63.0,
2001.0,bRMS,19,165630,,,images/rms/f42887_e_001.jpg,training,1.0,Q,400.0,False,True,0.0,63.0,63.0,
671.2999999970198,bRMS,20,167077,,,images/rms/f42887_e_001.jpg,training,1.0,Q,400.0,False,True,0.0,63.0,63.0,
602.1000000089407,bRMS,21,168461,,,images/rms/f42887_e_001.jpg,training,1.0,Q,400.0,False,True,0.0,63.0,63.0,
5744.0,instructions,22,174614,,,,,,,,,,,,,
2355.199999988079,bRMS,23,177328,,,images/rms/f42887_e_072_1.jpg,reversed,1.0,Q,400.0,False,True,0.0,63.0,63.0,
3169.5,bRMS,24,181278,,,images/rms/f42887_e_258.jpg,main,0.0,P,400.0,False,True,0.0,63.0,63.0,
2081.800000011921,bRMS,25,184129,,,images/rms/f42887_e_103_1.jpg,reversed,1.0,Q,400.0,False,True,0.0,63.0,63.0,
891.9000000059605,bRMS,26,185795,,,images/rms/f42887_e_252.jpg,main,1.0,Q,400.0,False,True,0.0,63.0,63.0,
1585.199999988079,bRMS,27,188146,,,images/rms/f42887_e_297_1.jpg,reversed,1.0,Q,400.0,False,True,0.0,63.0,63.0,
639.6000000089407,bRMS,28,189557,,,images/rms/f42887_e_025.jpg,main,0.0,P,400.0,False,True,0.0,63.0,63.0,
777.4000000059605,bRMS,29,191110,,,images/rms/f42887_e_161_1.jpg,reversed,1.0,Q,400.0,False,True,0.0,63.0,63.0,
1497.5,bRMS,30,193390,,,images/rms/f42887_e_005_1.jpg,reversed,0.0,P,400.0,False,True,0.0,63.0,63.0,
1073.4000000059605,bRMS,31,195245,,,images/rms/f42887_e_015_1.jpg,reversed,0.0,P,400.0,False,True,0.0,63.0,63.0,
1279.8999999910593,bRMS,32,197302,,,images/rms/f42887_e_098_1.jpg,reversed,1.0,Q,400.0,False,True,0.0,63.0,63.0,
770.0,bRMS,33,198853,,,images/rms/f42887_e_241.jpg,main,0.0,P,400.0,False,True,0.0,63.0,63.0,
1521.2000000029802,bRMS,34,201141,,,images/rms/f42887_e_156.jpg,main,0.0,P,400.0,False,True,0.0,63.0,63.0,
505.3000000119209,bRMS,35,202422,,,images/rms/f42887_e_295_1.jpg,reversed,0.0,P,400.0,False,True,0.0,63.0,63.0,
1144.0,bRMS,36,204342,,,images/rms/f42887_e_278_1.jpg,reversed,1.0,Q,400.0,False,True,0.0,63.0,63.0,
522.2000000029802,bRMS,37,205638,,,images/rms/f42887_e_180_1.jpg,reversed,0.0,P,400.0,False,True,0.0,63.0,63.0,
968.5999999940396,bRMS,38,207378,,,images/rms/f42887_e_298_1.jpg,reversed,1.0,Q,400.0,False,True,0.0,63.0,63.0,
1377.4000000059605,bRMS,39,209526,,,images/rms/f42887_e_080_1.jpg,reversed,1.0,Q,400.0,False,True,0.0,63.0,63.0,
1193.2999999970198,bRMS,40,211509,,,images/rms/f42887_e_296.jpg,main,0.0,P,400.0,False,True,0.0,63.0,63.0,
1192.7999999970198,bRMS,41,213477,,,images/rms/f42887_e_156_1.jpg,reversed,1.0,Q,400.0,False,True,0.0,63.0,63.0,
1416.9000000059605,bRMS,42,215669,,,images/rms/f42887_e_245_1.jpg,reversed,0.0,P,400.0,False,True,0.0,63.0,63.0,
2113.70000000298,bRMS,43,218574,,,images/rms/f42887_e_001_1.jpg,reversed,1.0,Q,400.0,False,True,0.0,63.0,63.0,
1360.3999999910593,bRMS,44,220710,,,images/rms/f42887_e_245.jpg,main,1.0,Q,400.0,False,True,0.0,63.0,63.0,
1291.9000000059605,bRMS,45,222790,,,images/rms/f42887_e_295.jpg,main,0.0,P,400.0,False,True,0.0,63.0,63.0,
1028.0,bRMS,46,224621,,,images/rms/f42887_e_058_1.jpg,reversed,1.0,Q,400.0,False,True,0.0,63.0,63.0,
1329.4000000059605,bRMS,47,226725,,,images/rms/f42887_e_121_1.jpg,reversed,1.0,Q,400.0,False,True,0.0,63.0,63.0,
1193.2999999970198,bRMS,48,228701,,,images/rms/f42887_e_140.jpg,main,0.0,P,400.0,False,True,0.0,63.0,63.0,
823.8999999910593,bRMS,49,230294,,,images/rms/f42887_e_025_1.jpg,reversed,1.0,Q,400.0,False,True,0.0,63.0,63.0,
1085.699999988079,bRMS,50,232174,,,images/rms/f42887_e_028.jpg,main,1.0,Q,400.0,False,True,0.0,63.0,63.0,
1710.7999999970198,bRMS,51,234659,,,images/rms/f42887_e_289.jpg,main,1.0,Q,400.0,False,True,0.0,63.0,63.0,
889.4000000059605,bRMS,52,236325,,,images/rms/f42887_e_293_1.jpg,reversed,0.0,P,400.0,False,True,0.0,63.0,63.0,
1109.9000000059605,bRMS,53,238221,,,images/rms/f42887_e_278.jpg,main,1.0,Q,400.0,False,True,0.0,63.0,63.0,
1025.0,bRMS,54,240021,,,images/rms/f42887_e_252_1.jpg,reversed,0.0,P,400.0,False,True,0.0,63.0,63.0,
841.5,bRMS,55,241637,,,images/rms/f42887_e_072.jpg,main,0.0,P,400.0,False,True,0.0,63.0,63.0,
762.0999999940395,bRMS,56,243173,,,images/rms/f42887_e_180.jpg,main,1.0,Q,400.0,False,True,0.0,63.0,63.0,
1115.0,bRMS,57,245069,,,images/rms/f42887_e_293.jpg,main,1.0,Q,400.0,False,True,0.0,63.0,63.0,
540.7000000029802,bRMS,58,246390,,,images/rms/f42887_e_053.jpg,main,0.0,P,400.0,False,True,0.0,63.0,63.0,
663.7999999970198,bRMS,59,247826,,,images/rms/f42887_e_005.jpg,main,1.0,Q,400.0,False,True,0.0,63.0,63.0,
1353.699999988079,bRMS,60,249958,,,images/rms/f42887_e_015.jpg,main,1.0,Q,400.0,False,True,0.0,63.0,63.0,
633.2999999970198,bRMS,61,251365,,,images/rms/f42887_e_202_1.jpg,reversed,0.0,P,400.0,False,True,0.0,63.0,63.0,
705.5999999940395,bRMS,62,252858,,,images/rms/f42887_e_001.jpg,main,0.0,P,400.0,False,True,0.0,63.0,63.0,
992.7999999970198,bRMS,63,254626,,,images/rms/f42887_e_259_1.jpg,reversed,1.0,Q,400.0,False,True,0.0,63.0,63.0,
656.7000000029802,bRMS,64,256054,,,images/rms/f42887_e_297.jpg,main,1.0,Q,400.0,False,True,0.0,63.0,63.0,
679.7999999970198,bRMS,65,257517,,,images/rms/f42887_e_058.jpg,main,0.0,P,400.0,False,True,0.0,63.0,63.0,
776.1000000089407,bRMS,66,259059,,,images/rms/f42887_e_127.jpg,main,0.0,P,400.0,False,True,0.0,63.0,63.0,
905.0999999940396,bRMS,67,260750,,,images/rms/f42887_e_064_1.jpg,reversed,1.0,Q,400.0,False,True,0.0,63.0,63.0,
809.4000000059605,bRMS,68,262341,,,images/rms/f42887_e_258_1.jpg,reversed,0.0,P,400.0,False,True,0.0,63.0,63.0,
762.5,bRMS,69,263874,,,images/rms/f42887_e_289_1.jpg,reversed,0.0,P,400.0,False,True,0.0,63.0,63.0,
905.7999999970198,bRMS,70,265557,,,images/rms/f42887_e_241_1.jpg,reversed,0.0,P,400.0,False,True,0.0,63.0,63.0,
633.7000000029802,bRMS,71,266965,,,images/rms/f42887_e_296_1.jpg,reversed,0.0,P,400.0,False,True,0.0,63.0,63.0,
1488.0999999940395,bRMS,72,269221,,,images/rms/f42887_e_103.jpg,main,1.0,Q,400.0,False,True,0.0,63.0,63.0,
1831.5,bRMS,73,271838,,,images/rms/f42887_e_098.jpg,main,1.0,Q,400.0,False,True,0.0,63.0,63.0,
937.2999999970198,bRMS,74,273573,,,images/rms/f42887_e_259.jpg,main,1.0,Q,400.0,False,True,0.0,63.0,63.0,
2154.0,bRMS,75,276501,,,images/rms/f42887_e_053_1.jpg,reversed,1.0,Q,400.0,False,True,0.0,63.0,63.0,
1384.9000000059605,bRMS,76,278670,,,images/rms/f42887_e_121.jpg,main,1.0,Q,400.0,False,True,0.0,63.0,63.0,
1116.5,bRMS,77,280565,,,images/rms/f42887_e_298.jpg,main,0.0,P,400.0,False,True,0.0,63.0,63.0,
514.2000000029802,bRMS,78,281870,,,images/rms/f42887_e_202.jpg,main,0.0,P,400.0,False,True,0.0,63.0,63.0,
482.1000000089407,bRMS,79,283133,,,images/rms/f42887_e_064.jpg,main,0.0,P,400.0,False,True,0.0,63.0,63.0,
1161.4000000059605,bRMS,80,285086,,,images/rms/f42887_e_127_1.jpg,reversed,1.0,Q,400.0,False,True,0.0,63.0,63.0,
537.9000000059605,bRMS,81,286406,,,images/rms/f42887_e_028_1.jpg,reversed,0.0,P,400.0,False,True,0.0,63.0,63.0,
967.0,bRMS,82,288149,,,images/rms/f42887_e_161.jpg,main,1.0,Q,400.0,False,True,0.0,63.0,63.0,
1345.7000000029802,bRMS,83,290273,,,images/rms/f42887_e_080.jpg,main,1.0,Q,400.0,False,True,0.0,63.0,63.0,
1425.300000011921,bRMS,84,292469,,,images/rms/f42887_e_140_1.jpg,reversed,1.0,Q,400.0,False,True,0.0,63.0,63.0,
12460.0,instructions,85,305342,,,,,,,,,,,,,
,image-cpt,86,308975,,,,,,,,,,,,,False
,image-cpt,87,312609,,,,,,,,,,,,,False
500.0,image-cpt,88,315726,,,,,,32,,,,,,,True
,image-cpt,89,316758,,,,,,,,,,,,,False
,image-cpt,90,320407,,,,,,,,,,,,,False
367.0,image-cpt,91,323525,,,,,,32,,,,,,,True
,image-cpt,92,327158,,,,,,,,,,,,,False
399.0,image-cpt,93,330292,,,,,,32,,,,,,,False
513.0,image-cpt,94,332940,,,,,,32,,,,,,,True
,image-cpt,95,335574,,,,,,,,,,,,,False
,image-cpt,96,338224,,,,,,,,,,,,,False
,image-cpt,97,340373,,,,,,,,,,,,,False
433.0,image-cpt,98,342524,,,,,,32,,,,,,,True
,image-cpt,99,345158,,,,,,,,,,,,,False
,image-cpt,100,348291,,,,,,,,,,,,,False
4027.0,instructions,101,352318,,,,,,,,,,,,,
,image-cpt,102,355455,,,,,,,,,,,,,False
,image-cpt,103,358104,,,,,,,,,,,,,False
509.0,image-cpt,104,361238,,,,,,32,,,,,,,True
,image-cpt,105,363388,,,,,,,,,,,,,False
,image-cpt,106,365538,,,,,,,,,,,,,False
468.0,image-cpt,107,368687,,,,,,32,,,,,,,True
534.0,image-cpt,108,371338,,,,,,32,,,,,,,True
,image-cpt,109,374987,,,,,,,,,,,,,False
491.0,image-cpt,110,378620,,,,,,32,,,,,,,True
,image-cpt,111,380771,,,,,,,,,,,,,False
,image-cpt,112,382920,,,,,,,,,,,,,False
558.0,image-cpt,113,386070,,,,,,32,,,,,,,True
,image-cpt,114,389220,,,,,,,,,,,,,False
,image-cpt,115,391370,,,,,,,,,,,,,False
,image-cpt,116,395020,,,,,,,,,,,,,False
,image-cpt,117,397653,,,,,,,,,,,,,False
,image-cpt,118,399803,,,,,,,,,,,,,False
523.0,image-cpt,119,403435,,,,,,32,,,,,,,True
,image-cpt,120,407069,,,,,,,,,,,,,False
,image-cpt,121,410719,,,,,,,,,,,,,False
,image-cpt,122,412853,,,,,,,,,,,,,False
,image-cpt,123,415503,,,,,,,,,,,,,False
,image-cpt,124,418152,,,,,,,,,,,,,False
,image-cpt,125,421802,,,,,,,,,,,,,False
,image-cpt,126,425452,,,,,,,,,,,,,False
,image-cpt,127,427602,,,,,,,,,,,,,False
485.0,image-cpt,128,430251,,,,,,32,,,,,,,True
,image-cpt,129,433402,,,,,,,,,,,,,False
,image-cpt,130,436051,,,,,,,,,,,,,False
563.0,image-cpt,131,439201,,,,,,32,,,,,,,True
613.0,image-cpt,132,441851,,,,,,32,,,,,,,True
618.0,image-cpt,133,445001,,,,,,32,,,,,,,True
557.0,image-cpt,134,448151,,,,,,32,,,,,,,True
,image-cpt,135,450284,,,,,,,,,,,,,False
523.0,image-cpt,136,452934,,,,,,32,,,,,,,True
,image-cpt,137,456084,,,,,,,,,,,,,False
418.0,image-cpt,138,459718,,,,,,32,,,,,,,True
,image-cpt,139,462367,,,,,,,,,,,,,False
,image-cpt,140,466017,,,,,,,,,,,,,False
,image-cpt,141,469167,,,,,,,,,,,,,False
,image-cpt,142,472817,,,,,,,,,,,,,False
,image-cpt,143,475466,,,,,,,,,,,,,False
,image-cpt,144,477617,,,,,,,,,,,,,False
710.0,image-cpt,145,480767,,,,,,32,,,,,,,True
760.0,image-cpt,146,482916,,,,,,32,,,,,,,True
,image-cpt,147,486566,,,,,,,,,,,,,False
544.0,image-cpt,148,490216,,,,,,32,,,,,,,True
,image-cpt,149,492866,,,,,,,,,,,,,False
,image-cpt,150,495516,,,,,,,,,,,,,False
603.0,image-cpt,151,497666,,,,,,32,,,,,,,True
,image-cpt,152,501315,,,,,,,,,,,,,False
595.0,image-cpt,153,504950,,,,,,32,,,,,,,True
609.0,image-cpt,154,508598,,,,,,32,,,,,,,True
,image-cpt,155,511749,,,,,,,,,,,,,False
626.0,image-cpt,156,513898,,,,,,32,,,,,,,True
668.0,image-cpt,157,517048,,,,,,32,,,,,,,True
,image-cpt,158,519181,,,,,,,,,,,,,False
393.0,image-cpt,159,522831,,,,,,32,,,,,,,True
,image-cpt,160,524965,,,,,,,,,,,,,False
,image-cpt,161,527614,,,,,,,,,,,,,False
616.0,image-cpt,162,530764,,,,,,32,,,,,,,True
,image-cpt,163,533398,,,,,,,,,,,,,False
463.0,image-cpt,164,535547,,,,,,32,,,,,,,True
602.0,image-cpt,165,538180,,,,,,32,,,,,,,True
514.0,image-cpt,166,541831,,,,,,32,,,,,,,True
,image-cpt,167,543965,,,,,,,,,,,,,False
,image-cpt,168,546113,,,,,,,,,,,,,False
,image-cpt,169,549763,,,,,,,,,,,,,False
,image-cpt,170,552913,,,,,,,,,,,,,False
,image-cpt,171,556063,,,,,,,,,,,,,False
,image-cpt,172,559212,,,,,,,,,,,,,False
,image-cpt,173,562862,,,,,,,,,,,,,False
,image-cpt,174,564997,,,,,,,,,,,,,False
,image-cpt,175,568630,,,,,,,,,,,,,False
,image-cpt,176,570779,,,,,,,,,,,,,False
,image-cpt,177,572929,,,,,,,,,,,,,False
,image-cpt,178,576578,,,,,,,,,,,,,False
,image-cpt,179,580228,,,,,,,,,,,,,False
,image-cpt,180,582878,,,,,,,,,,,,,False
,image-cpt,181,586011,,,,,,,,,,,,,False
,image-cpt,182,589644,,,,,,,,,,,,,False
,image-cpt,183,593294,,,,,,,,,,,,,False
,image-cpt,184,596945,,,,,,,,,,,,,False
,image-cpt,185,600095,,,,,,,,,,,,,False
,image-cpt,186,603744,,,,,,,,,,,,,False
,image-cpt,187,606394,,,,,,,,,,,,,False
540.0,image-cpt,188,608545,,,,,,32,,,,,,,True
,image-cpt,189,611678,,,,,,,,,,,,,False
632.0,image-cpt,190,613827,,,,,,32,,,,,,,True
707.0,image-cpt,191,616461,,,,,,32,,,,,,,True
424.0,image-cpt,192,619111,,,,,,32,,,,,,,True
,image-cpt,193,621260,,,,,,,,,,,,,False
,image-cpt,194,623911,,,,,,,,,,,,,False
576.0,image-cpt,195,627060,,,,,,32,,,,,,,True
,image-cpt,196,630210,,,,,,,,,,,,,False
,image-cpt,197,632860,,,,,,,,,,,,,False
586.0,image-cpt,198,636494,,,,,,32,,,,,,,True
,image-cpt,199,639143,,,,,,,,,,,,,False
,image-cpt,200,641793,,,,,,,,,,,,,False
677.0,image-cpt,201,644943,,,,,,32,,,,,,,True
,image-cpt,202,648593,,,,,,,,,,,,,False
,image-cpt,203,652242,,,,,,,,,,,,,False
,image-cpt,204,655891,,,,,,,,,,,,,False
531.0,image-cpt,205,659041,,,,,,32,,,,,,,True
,image-cpt,206,661191,,,,,,,,,,,,,False
542.0,image-cpt,207,663341,,,,,,32,,,,,,,True
,image-cpt,208,665491,,,,,,,,,,,,,False
,image-cpt,209,668125,,,,,,,,,,,,,False
,image-cpt,210,671774,,,,,,,,,,,,,False
,image-cpt,211,674424,,,,,,,,,,,,,False
,image-cpt,212,677074,,,,,,,,,,,,,False
,image-cpt,213,679724,,,,,,,,,,,,,False
,image-cpt,214,682873,,,,,,,,,,,,,False
,image-cpt,215,685524,,,,,,,,,,,,,False
,image-cpt,216,688673,,,,,,,,,,,,,False
,image-cpt,217,691823,,,,,,,,,,,,,False
,image-cpt,218,694956,,,,,,,,,,,,,False
,image-cpt,219,697606,,,,,,,,,,,,,False
,image-cpt,220,700256,,,,,,,,,,,,,False
646.0,image-cpt,221,702906,,,,,,32,,,,,,,True
,image-cpt,222,706539,,,,,,,,,,,,,False
,image-cpt,223,709172,,,,,,,,,,,,,False
529.0,image-cpt,224,711323,,,,,,32,,,,,,,True
,image-cpt,225,713472,,,,,,,,,,,,,False
501.0,image-cpt,226,717122,,,,,,32,,,,,,,True
,image-cpt,227,719757,,,,,,,,,,,,,False
,image-cpt,228,722405,,,,,,,,,,,,,False
,image-cpt,229,726055,,,,,,,,,,,,,False
,image-cpt,230,728206,,,,,,,,,,,,,False
648.0,image-cpt,231,731855,,,,,,32,,,,,,,True
,image-cpt,232,734505,,,,,,,,,,,,,False
,image-cpt,233,736654,,,,,,,,,,,,,False
,image-cpt,234,739788,,,,,,,,,,,,,False
,image-cpt,235,742438,,,,,,,,,,,,,False
,image-cpt,236,744588,,,,,,,,,,,,,False
,image-cpt,237,747238,,,,,,,,,,,,,False
,image-cpt,238,749887,,,,,,,,,,,,,False
,image-cpt,239,753037,,,,,,,,,,,,,False
,image-cpt,240,756187,,,,,,,,,,,,,False
,image-cpt,241,759337,,,,,,,,,,,,,False
861.0,image-cpt,242,762487,,,,,,32,,,,,,,True
,image-cpt,243,764621,,,,,,,,,,,,,False
,image-cpt,244,767270,,,,,,,,,,,,,False
,image-cpt,245,770420,,,,,,,,,,,,,False
,image-cpt,246,772570,,,,,,,,,,,,,False
,image-cpt,247,775219,,,,,,,,,,,,,False
,image-cpt,248,778869,,,,,,,,,,,,,False
,image-cpt,249,781019,,,,,,,,,,,,,False
,image-cpt,250,783169,,,,,,,,,,,,,False
613.0,image-cpt,251,786319,,,,,,32,,,,,,,True
663.0,image-cpt,252,789452,,,,,,32,,,,,,,True
,image-cpt,253,792102,,,,,,,,,,,,,False
,image-cpt,254,795237,,,,,,,,,,,,,False
,image-cpt,255,797885,,,,,,,,,,,,,False
616.0,image-cpt,256,801035,,,,,,32,,,,,,,True
,image-cpt,257,804669,,,,,,,,,,,,,False
,image-cpt,258,807818,,,,,,,,,,,,,False
,image-cpt,259,810968,,,,,,,,,,,,,False
494.0,image-cpt,260,814618,,,,,,32,,,,,,,True
,image-cpt,261,818268,,,,,,,,,,,,,False
,image-cpt,262,821917,,,,,,,,,,,,,False
616.0,image-cpt,263,824067,,,,,,32,,,,,,,True
,image-cpt,264,827700,,,,,,,,,,,,,False
,image-cpt,265,829850,,,,,,,,,,,,,False
683.0,image-cpt,266,832484,,,,,,32,,,,,,,True
,image-cpt,267,835634,,,,,,,,,,,,,False
596.0,image-cpt,268,839284,,,,,,32,,,,,,,True
,image-cpt,269,841433,,,,,,,,,,,,,False
,image-cpt,270,844583,,,,,,,,,,,,,False
734.0,image-cpt,271,847717,,,,,,32,,,,,,,True
529.0,image-cpt,272,851367,,,,,,32,,,,,,,True
,image-cpt,273,854016,,,,,,,,,,,,,False
645.0,image-cpt,274,856166,,,,,,32,,,,,,,True
431.0,image-cpt,275,859316,,,,,,32,,,,,,,True
,image-cpt,276,862466,,,,,,,,,,,,,False
,image-cpt,277,865616,,,,,,,,,,,,,False
,image-cpt,278,868766,,,,,,,,,,,,,False
,image-cpt,279,872415,,,,,,,,,,,,,False
,image-cpt,280,876065,,,,,,,,,,,,,False
,image-cpt,281,879215,,,,,,,,,,,,,False
630.0,image-cpt,282,881865,,,,,,32,,,,,,,True
,image-cpt,283,884015,,,,,,,,,,,,,False
,image-cpt,284,887665,,,,,,,,,,,,,False
,image-cpt,285,890314,,,,,,,,,,,,,False
,image-cpt,286,891331,,,,,,,,,,,,,False
,image-cpt,287,894965,,,,,,,,,,,,,False
528.0,image-cpt,288,897114,,,,,,32,,,,,,,True
,image-cpt,289,900764,,,,,,,,,,,,,False
522.0,image-cpt,290,902914,,,,,,32,,,,,,,True
,image-cpt,291,905564,,,,,,,,,,,,,False
,image-cpt,292,908714,,,,,,,,,,,,,False
,image-cpt,293,910864,,,,,,,,,,,,,False
,image-cpt,294,914013,,,,,,,,,,,,,False
,image-cpt,295,917163,,,,,,,,,,,,,False
571.0,image-cpt,296,920797,,,,,,32,,,,,,,True
,image-cpt,297,923946,,,,,,,,,,,,,False
,image-cpt,298,927580,,,,,,,,,,,,,False
,image-cpt,299,930730,,,,,,,,,,,,,False
,image-cpt,300,933879,,,,,,,,,,,,,False
,image-cpt,301,937029,,,,,,,,,,,,,False
,image-cpt,302,939179,,,,,,,,,,,,,False
,image-cpt,303,941812,,,,,,,,,,,,,False
,image-cpt,304,944963,,,,,,,,,,,,,False
,image-cpt,305,948597,,,,,,,,,,,,,False
625.0,image-cpt,306,950745,,,,,,32,,,,,,,True
524.0,image-cpt,307,953395,,,,,,32,,,,,,,True
402.0,image-cpt,308,956545,,,,,,32,,,,,,,True
,image-cpt,309,959695,,,,,,,,,,,,,False
,image-cpt,310,961845,,,,,,,,,,,,,False
512.0,image-cpt,311,964995,,,,,,32,,,,,,,True
,image-cpt,312,967145,,,,,,,,,,,,,False
,image-cpt,313,969295,,,,,,,,,,,,,False
,image-cpt,314,971428,,,,,,,,,,,,,False
,image-cpt,315,975077,,,,,,,,,,,,,False
,image-cpt,316,977228,,,,,,,,,,,,,False
,image-cpt,317,980377,,,,,,,,,,,,,False
,image-cpt,318,983528,,,,,,,,,,,,,False
,image-cpt,319,986661,,,,,,,,,,,,,False
,image-cpt,320,990311,,,,,,,,,,,,,False
607.0,image-cpt,321,992444,,,,,,32,,,,,,,True
505.0,image-cpt,322,994594,,,,,,32,,,,,,,True
,image-cpt,323,998243,,,,,,,,,,,,,False
,image-cpt,324,1000877,,,,,,,,,,,,,False
,image-cpt,325,1004026,,,,,,,,,,,,,False
555.0,image-cpt,326,1007661,,,,,,32,,,,,,,True
538.0,image-cpt,327,1009809,,,,,,32,,,,,,,True
,image-cpt,328,1012459,,,,,,,,,,,,,False
,image-cpt,329,1017976,,,,,,,,,,,,,False
,image-cpt,330,1020126,,,,,,,,,,,,,False
488.0,image-cpt,331,1023776,,,,,,32,,,,,,,True
,image-cpt,332,1027425,,,,,,,,,,,,,False
,image-cpt,333,1029575,,,,,,,,,,,,,False
541.0,image-cpt,334,1031708,,,,,,32,,,,,,,True
,image-cpt,335,1034858,,,,,,,,,,,,,False
,image-cpt,336,1038008,,,,,,,,,,,,,False
,image-cpt,337,1040658,,,,,,,,,,,,,False
675.0,image-cpt,338,1043293,,,,,,32,,,,,,,True
,image-cpt,339,1046941,,,,,,,,,,,,,False
521.0,image-cpt,340,1050591,,,,,,32,,,,,,,True
,image-cpt,341,1054241,,,,,,,,,,,,,False
550.0,image-cpt,342,1056391,,,,,,32,,,,,,,True
430.0,image-cpt,343,1059524,,,,,,32,,,,,,,True
,image-cpt,344,1061674,,,,,,,,,,,,,False
,image-cpt,345,1065324,,,,,,,,,,,,,False
,image-cpt,346,1067974,,,,,,,,,,,,,False
,image-cpt,347,1070623,,,,,,,,,,,,,False
,image-cpt,348,1073274,,,,,,,,,,,,,False
589.0,image-cpt,349,1075923,,,,,,32,,,,,,,True
,image-cpt,350,1079557,,,,,,,,,,,,,False
,image-cpt,351,1081706,,,,,,,,,,,,,False
,image-cpt,352,1083856,,,,,,,,,,,,,False
,image-cpt,353,1087006,,,,,,,,,,,,,False
,image-cpt,354,1090656,,,,,,,,,,,,,False
,image-cpt,355,1092806,,,,,,,,,,,,,False
465.0,image-cpt,356,1094940,,,,,,32,,,,,,,True
426.0,image-cpt,357,1098089,,,,,,32,,,,,,,True
,image-cpt,358,1101238,,,,,,,,,,,,,False
,image-cpt,359,1104889,,,,,,,,,,,,,False
494.0,image-cpt,360,1108539,,,,,,32,,,,,,,True
,image-cpt,361,1111173,,,,,,,,,,,,,False
737.0,image-cpt,362,1113322,,,,,,32,,,,,,,True
508.0,image-cpt,363,1116971,,,,,,32,,,,,,,True
,image-cpt,364,1120121,,,,,,,,,,,,,False
557.0,image-cpt,365,1122771,,,,,,32,,,,,,,True
514.0,image-cpt,366,1124921,,,,,,32,,,,,,,True
493.0,image-cpt,367,1127571,,,,,,32,,,,,,,True
370.0,image-cpt,368,1129721,,,,,,32,,,,,,,True
396.0,image-cpt,369,1132371,,,,,,32,,,,,,,True
419.0,image-cpt,370,1134521,,,,,,32,,,,,,,True
,image-cpt,371,1137171,,,,,,,,,,,,,False
,image-cpt,372,1140321,,,,,,,,,,,,,False
,image-cpt,373,1143471,,,,,,,,,,,,,False
,image-cpt,374,1146121,,,,,,,,,,,,,False
604.0,image-cpt,375,1148771,,,,,,32,,,,,,,True
,image-cpt,376,1149788,,,,,,,,,,,,,False
,image-cpt,377,1153421,,,,,,,,,,,,,False
634.0,image-cpt,378,1157070,,,,,,32,,,,,,,True
,image-cpt,379,1159720,,,,,,,,,,,,,False
,image-cpt,380,1161870,,,,,,,,,,,,,False
,image-cpt,381,1165020,,,,,,,,,,,,,False
634.0,image-cpt,382,1168670,,,,,,32,,,,,,,True
,image-cpt,383,1171320,,,,,,,,,,,,,False
575.0,image-cpt,384,1174970,,,,,,32,,,,,,,True
557.0,image-cpt,385,1177119,,,,,,32,,,,,,,True
488.0,image-cpt,386,1180253,,,,,,32,,,,,,,True
,image-cpt,387,1183902,,,,,,,,,,,,,False
536.0,image-cpt,388,1186553,,,,,,32,,,,,,,True
,image-cpt,389,1188702,,,,,,,,,,,,,False
520.0,image-cpt,390,1190852,,,,,,32,,,,,,,True
,image-cpt,391,1193502,,,,,,,,,,,,,False
,image-cpt,392,1196152,,,,,,,,,,,,,False
,image-cpt,393,1198802,,,,,,,,,,,,,False
,image-cpt,394,1201452,,,,,,,,,,,,,False
,image-cpt,395,1205084,,,,,,,,,,,,,False
,image-cpt,396,1207734,,,,,,,,,,,,,False
608.0,image-cpt,397,1209869,,,,,,32,,,,,,,True
,image-cpt,398,1213517,,,,,,,,,,,,,False
,image-cpt,399,1216167,,,,,,,,,,,,,False
,image-cpt,400,1219317,,,,,,,,,,,,,False
,image-cpt,401,1221467,,,,,,,,,,,,,False
,image-cpt,402,1224100,,,,,,,,,,,,,False
,image-cpt,403,1227250,,,,,,,,,,,,,False
757.0,image-cpt,404,1229885,,,,,,32,,,,,,,True
,image-cpt,405,1233033,,,,,,,,,,,,,False
,image-cpt,406,1235183,,,,,,,,,,,,,False
519.0,image-cpt,407,1238833,,,,,,32,,,,,,,True
550.0,image-cpt,408,1241483,,,,,,32,,,,,,,True
,image-cpt,409,1243632,,,,,,,,,,,,,False
613.0,image-cpt,410,1246282,,,,,,32,,,,,,,True
,image-cpt,411,1248433,,,,,,,,,,,,,False
502.0,image-cpt,412,1250582,,,,,,32,,,,,,,True
,image-cpt,413,1253717,,,,,,,,,,,,,False
450.0,image-cpt,414,1255866,,,,,,32,,,,,,,True
,image-cpt,415,1259515,,,,,,,,,,,,,False
,image-cpt,416,1262149,,,,,,,,,,,,,False
,image-cpt,417,1265799,,,,,,,,,,,,,False
,image-cpt,418,1268931,,,,,,,,,,,,,False
,image-cpt,419,1272582,,,,,,,,,,,,,False
,image-cpt,420,1276231,,,,,,,,,,,,,False
,image-cpt,421,1279881,,,,,,,,,,,,,False
44477.0,instructions,422,1324358,,,,,,,,,,,,,
3015.29999999702,bRMS,423,1327729,,,images/rms/f42887_e_005_1.jpg,control_reversed,1.0,Q,400.0,False,True,0.0,63.0,63.0,
1331.0,bRMS,424,1329837,,,images/rms/f42887_e_252_1.jpg,control_reversed,1.0,Q,400.0,False,True,0.0,63.0,63.0,
795.0999999940395,bRMS,425,1331396,,,images/rms/f42887_e_295_1.jpg,control_reversed,1.0,Q,400.0,False,True,0.0,63.0,63.0,
969.9000000059604,bRMS,426,1333142,,,images/rms/f42887_e_180.jpg,control_main,0.0,P,400.0,False,True,0.0,63.0,63.0,
641.2000000029802,bRMS,427,1334578,,,images/rms/f42887_e_140.jpg,control_main,1.0,Q,400.0,False,True,0.0,63.0,63.0,
1019.2000000029802,bRMS,428,1336373,,,images/rms/f42887_e_278.jpg,control_main,1.0,Q,400.0,False,True,0.0,63.0,63.0,
626.5,bRMS,429,1337790,,,images/rms/f42887_e_064.jpg,control_main,0.0,P,400.0,False,True,0.0,63.0,63.0,
801.7000000029802,bRMS,430,1339374,,,images/rms/f42887_e_001.jpg,control_main,1.0,Q,400.0,False,True,0.0,63.0,63.0,
1186.699999988079,bRMS,431,1341328,,,images/rms/f42887_e_058.jpg,control_main,1.0,Q,400.0,False,True,0.0,63.0,63.0,
626.5,bRMS,432,1342726,,,images/rms/f42887_e_080.jpg,control_main,1.0,Q,400.0,False,True,0.0,63.0,63.0,
954.4000000059604,bRMS,433,1344463,,,images/rms/f42887_e_161_1.jpg,control_reversed,0.0,P,400.0,False,True,0.0,63.0,63.0,
1074.4000000059605,bRMS,434,1346309,,,images/rms/f42887_e_278_1.jpg,control_reversed,0.0,P,400.0,False,True,0.0,63.0,63.0,
1560.6000000089407,bRMS,435,1348654,,,images/rms/f42887_e_072_1.jpg,control_reversed,0.0,P,400.0,False,True,0.0,63.0,63.0,
713.0999999940395,bRMS,436,1350146,,,images/rms/f42887_e_180_1.jpg,control_reversed,0.0,P,400.0,False,True,0.0,63.0,63.0,
516.2000000029802,bRMS,437,1351438,,,images/rms/f42887_e_245.jpg,control_main,0.0,P,400.0,False,True,0.0,63.0,63.0,
845.3000000119209,bRMS,438,1353062,,,images/rms/f42887_e_295.jpg,control_main,1.0,Q,400.0,False,True,0.0,63.0,63.0,
665.7999999970198,bRMS,439,1354501,,,images/rms/f42887_e_297.jpg,control_main,1.0,Q,400.0,False,True,0.0,63.0,63.0,
819.2999999970198,bRMS,440,1356101,,,images/rms/f42887_e_025.jpg,control_main,0.0,P,400.0,False,True,0.0,63.0,63.0,
466.8999999910593,bRMS,441,1357357,,,images/rms/f42887_e_005.jpg,control_main,1.0,Q,400.0,False,True,0.0,63.0,63.0,
994.3999999910592,bRMS,442,1359125,,,images/rms/f42887_e_103_1.jpg,control_reversed,1.0,Q,400.0,False,True,0.0,63.0,63.0,
541.5,bRMS,443,1360437,,,images/rms/f42887_e_258_1.jpg,control_reversed,0.0,P,400.0,False,True,0.0,63.0,63.0,
1154.4000000059605,bRMS,444,1362374,,,images/rms/f42887_e_259_1.jpg,control_reversed,0.0,P,400.0,False,True,0.0,63.0,63.0,
522.7999999970198,bRMS,445,1363669,,,images/rms/f42887_e_245_1.jpg,control_reversed,0.0,P,400.0,False,True,0.0,63.0,63.0,
595.0999999940395,bRMS,446,1365037,,,images/rms/f42887_e_140_1.jpg,control_reversed,0.0,P,400.0,False,True,0.0,63.0,63.0,
635.3000000119209,bRMS,447,1366454,,,images/rms/f42887_e_025_1.jpg,control_reversed,0.0,P,400.0,False,True,0.0,63.0,63.0,
2339.70000000298,bRMS,448,1369590,,,images/rms/f42887_e_053_1.jpg,control_reversed,1.0,Q,400.0,False,True,0.0,63.0,63.0,
842.3999999910593,bRMS,449,1371206,,,images/rms/f42887_e_289_1.jpg,control_reversed,0.0,P,400.0,False,True,0.0,63.0,63.0,
897.4000000059605,bRMS,450,1372893,,,images/rms/f42887_e_293.jpg,control_main,1.0,Q,400.0,False,True,0.0,63.0,63.0,
577.3000000119209,bRMS,451,1374245,,,images/rms/f42887_e_072.jpg,control_main,0.0,P,400.0,False,True,0.0,63.0,63.0,
842.0999999940395,bRMS,452,1375878,,,images/rms/f42887_e_028.jpg,control_main,1.0,Q,400.0,False,True,0.0,63.0,63.0,
540.7000000029802,bRMS,453,1377189,,,images/rms/f42887_e_296_1.jpg,control_reversed,0.0,P,400.0,False,True,0.0,63.0,63.0,
634.7000000029802,bRMS,454,1378606,,,images/rms/f42887_e_289.jpg,control_main,1.0,Q,400.0,False,True,0.0,63.0,63.0,
572.4000000059605,bRMS,455,1379957,,,images/rms/f42887_e_001_1.jpg,control_reversed,0.0,P,400.0,False,True,0.0,63.0,63.0,
765.0,bRMS,456,1381493,,,images/rms/f42887_e_058_1.jpg,control_reversed,0.0,P,400.0,False,True,0.0,63.0,63.0,
922.0999999940396,bRMS,457,1383190,,,images/rms/f42887_e_053.jpg,control_main,1.0,Q,400.0,False,True,0.0,63.0,63.0,
588.6000000089407,bRMS,458,1384558,,,images/rms/f42887_e_298.jpg,control_main,0.0,P,400.0,False,True,0.0,63.0,63.0,
611.1000000089407,bRMS,459,1385941,,,images/rms/f42887_e_121_1.jpg,control_reversed,1.0,Q,400.0,False,True,0.0,63.0,63.0,
538.1000000089407,bRMS,460,1387254,,,images/rms/f42887_e_127_1.jpg,control_reversed,0.0,P,400.0,False,True,0.0,63.0,63.0,
803.2000000029802,bRMS,461,1388837,,,images/rms/f42887_e_298_1.jpg,control_reversed,0.0,P,400.0,False,True,0.0,63.0,63.0,
570.2999999970198,bRMS,462,1390177,,,images/rms/f42887_e_098.jpg,control_main,0.0,P,400.0,False,True,0.0,63.0,63.0,
1443.6000000089407,bRMS,463,1392389,,,images/rms/f42887_e_202_1.jpg,control_reversed,0.0,P,400.0,False,True,0.0,63.0,63.0,
914.7999999970198,bRMS,464,1394110,,,images/rms/f42887_e_252.jpg,control_main,1.0,Q,400.0,False,True,0.0,63.0,63.0,
898.2000000029802,bRMS,465,1395781,,,images/rms/f42887_e_156_1.jpg,control_reversed,1.0,Q,400.0,False,True,0.0,63.0,63.0,
674.7000000029802,bRMS,466,1397237,,,images/rms/f42887_e_015.jpg,control_main,1.0,Q,400.0,False,True,0.0,63.0,63.0,
738.0,bRMS,467,1398758,,,images/rms/f42887_e_098_1.jpg,control_reversed,1.0,Q,400.0,False,True,0.0,63.0,63.0,
843.8000000119209,bRMS,468,1400373,,,images/rms/f42887_e_296.jpg,control_main,0.0,P,400.0,False,True,0.0,63.0,63.0,
733.8999999910593,bRMS,469,1401877,,,images/rms/f42887_e_015_1.jpg,control_reversed,0.0,Q,400.0,False,False,0.0,63.0,63.0,
942.3000000119208,bRMS,470,1403605,,,images/rms/f42887_e_259.jpg,control_main,1.0,Q,400.0,False,True,0.0,63.0,63.0,
636.4000000059605,bRMS,471,1405010,,,images/rms/f42887_e_202.jpg,control_main,1.0,Q,400.0,False,True,0.0,63.0,63.0,
715.9000000059605,bRMS,472,1406510,,,images/rms/f42887_e_297_1.jpg,control_reversed,1.0,Q,400.0,False,True,0.0,63.0,63.0,
690.8000000119209,bRMS,473,1407989,,,images/rms/f42887_e_293_1.jpg,control_reversed,1.0,Q,400.0,False,True,0.0,63.0,63.0,
603.2000000029802,bRMS,474,1409360,,,images/rms/f42887_e_121.jpg,control_main,0.0,P,400.0,False,True,0.0,63.0,63.0,
583.1000000089407,bRMS,475,1410726,,,images/rms/f42887_e_241_1.jpg,control_reversed,1.0,Q,400.0,False,True,0.0,63.0,63.0,
502.6000000089407,bRMS,476,1412021,,,images/rms/f42887_e_080_1.jpg,control_reversed,0.0,P,400.0,False,True,0.0,63.0,63.0,
1034.0999999940395,bRMS,477,1413837,,,images/rms/f42887_e_028_1.jpg,control_reversed,0.0,P,400.0,False,True,0.0,63.0,63.0,
813.5999999940395,bRMS,478,1415426,,,images/rms/f42887_e_127.jpg,control_main,0.0,P,400.0,False,True,0.0,63.0,63.0,
591.9000000059605,bRMS,479,1416792,,,images/rms/f42887_e_103.jpg,control_main,0.0,P,400.0,False,True,0.0,63.0,63.0,
528.5,bRMS,480,1418085,,,images/rms/f42887_e_064_1.jpg,control_reversed,0.0,P,400.0,False,True,0.0,63.0,63.0,
819.0,bRMS,481,1419669,,,images/rms/f42887_e_156.jpg,control_main,1.0,Q,400.0,False,True,0.0,63.0,63.0,
545.7000000029802,bRMS,482,1421006,,,images/rms/f42887_e_161.jpg,control_main,1.0,Q,400.0,False,True,0.0,63.0,63.0,
549.2000000029802,bRMS,483,1422334,,,images/rms/f42887_e_241.jpg,control_main,0.0,P,400.0,False,True,0.0,63.0,63.0,
570.0,bRMS,484,1423685,,,images/rms/f42887_e_258.jpg,control_main,1.0,Q,400.0,False,True,0.0,63.0,63.0,
6785.0,instructions,485,1430871,,,,,,,,,,,,,
22296.0,survey-likert,486,1453167,"{""Q0"":1,""Q1"":1,""Q2"":1}",ASRS_2_6,,,,,,,,,,,
12360.0,survey-likert,487,1465527,"{""Q0"":1,""Q1"":2,""Q2"":0}",ASRS_2_3,,,,,,,,,,,
20152.0,survey-likert,488,1485679,"{""Q0"":0,""Q1"":2,""Q2"":0}",ASRS_1_3,,,,,,,,,,,
18560.0,survey-likert,489,1504239,"{""Q0"":0,""Q1"":1,""Q2"":0}",ASRS_2_9,,,,,,,,,,,
11864.0,survey-likert,490,1516103,"{""Q0"":1,""Q1"":2,""Q2"":1}",ASRS_2_0,,,,,,,,,,,
19327.0,survey-likert,491,1535431,"{""Q0"":1,""Q1"":0,""Q2"":0}",ASRS_1_0,,,,,,,,,,,
5496.0,survey-likert,492,1540927,"{""Q0"":4}",LAST_1,,,,,,,,,,,
3311.0,survey-multi-choice,493,1544239,"{""Q0"":""לא""}",,,,,,,,,,,,
1384.0,survey-text,494,1545623,"{""Q0"":""""}",,,,,,,,,,,,
5848.0,survey-likert,495,1551471,"{""Q0"":4}",LAST_4,,,,,,,,,,,
1751.0,survey-multi-choice,496,1553223,"{""Q0"":""לא""}",,,,,,,,,,,,
968.0,survey-text,497,1554191,"{""Q0"":""""}",,,,,,,,,,,,
7840.0,survey-likert,498,1562031,"{""Q0"":4}",DRIVE_1,,,,,,,,,,,
9887.0,survey-text,499,1571919,"{""Q0"":""0""}",,,,,,,,,,,,
5064.0,survey-text,500,1576983,"{""Q0"":""0""}",,,,,,,,,,,,
1736.0,instructions,501,1578719,,,,,,,,,,,,,
