rt,trial_type,trial_index,time_elapsed,responses,stimulus,stimulus_block,stimulus_side,key_press,time_post_trial,subject,is_fullscreen,trial_began,os,browser,mobile,flash,cookies,screen_size,block,sub_block,is_stimulus
25887,instructions,0,25887,,,,,,,,,,,,,,,,,,
6342,survey-multi-choice,1,32231,"{""Q0"":""אישה"",""Q1"":""ימין"",""Q2"":""עברית""}",,,,,,,,,,,,,,,,,
4551,survey-text,2,36783,"{""Q0"":""24""}",,,,,,,,,,,,,,,,,
3543,survey-multi-choice,3,40327,"{""Q0"":""לא""}",,,,,,,,,,,,,,,,,
8583,survey-likert,4,48911,"{""Q0"":2}",,,,,,,,,,,,,,,,,
33015,instructions,5,81926,,,,,,,,,,,,,,,,,,
2000.2,bRMS,6,83988,,,training,0,P,400,1,FALSE,0,Windows 10,Chrome 100 (100.0.4896.60),FALSE,no check,TRUE,,63,63,
654.0999999,bRMS,7,85106,,,training,1,Q,400,1,FALSE,0,Windows 10,Chrome 100 (100.0.4896.60),FALSE,no check,TRUE,,63,63,
661.2,bRMS,8,86227,,,training,1,Q,400,1,FALSE,0,Windows 10,Chrome 100 (100.0.4896.60),FALSE,no check,TRUE,,63,63,
494.5,bRMS,9,87187,,,training,0,P,400,1,FALSE,0,Windows 10,Chrome 100 (100.0.4896.60),FALSE,no check,TRUE,,63,63,
637.5999999,bRMS,10,88307,,,training,1,Q,400,1,FALSE,0,Windows 10,Chrome 100 (100.0.4896.60),FALSE,no check,TRUE,,63,63,
623.9000001,bRMS,11,89394,,,training,1,Q,400,1,FALSE,0,Windows 10,Chrome 100 (100.0.4896.60),FALSE,no check,TRUE,,63,63,
588.5999999,bRMS,12,90449,,,training,0,P,400,1,FALSE,0,Windows 10,Chrome 100 (100.0.4896.60),FALSE,no check,TRUE,,63,63,
879,bRMS,13,91794,,,training,0,P,400,1,FALSE,0,Windows 10,Chrome 100 (100.0.4896.60),FALSE,no check,TRUE,,63,63,
469.4000001,bRMS,14,92722,,,training,1,Q,400,1,FALSE,0,Windows 10,Chrome 100 (100.0.4896.60),FALSE,no check,TRUE,,63,63,
539.5999999,bRMS,15,93730,,,training,0,P,400,1,FALSE,0,Windows 10,Chrome 100 (100.0.4896.60),FALSE,no check,TRUE,,63,63,
23472,instructions,16,117614,,,,,,,,,,,,,,,,,,
1493.2,bRMS,17,119154,,,,0,P,400,1,FALSE,0,Windows 10,Chrome 100 (100.0.4896.60),FALSE,no check,TRUE,,63,63,
817.8,bRMS,18,120432,,,,0,P,400,1,FALSE,0,Windows 10,Chrome 100 (100.0.4896.60),FALSE,no check,TRUE,,63,63,
818.4000001,bRMS,19,121713,,,,0,P,400,1,FALSE,0,Windows 10,Chrome 100 (100.0.4896.60),FALSE,no check,TRUE,,63,63,
754.3,bRMS,20,122929,,,,1,Q,400,1,FALSE,0,Windows 10,Chrome 100 (100.0.4896.60),FALSE,no check,TRUE,,63,63,
520.3,bRMS,21,123923,,,,0,P,400,1,FALSE,0,Windows 10,Chrome 100 (100.0.4896.60),FALSE,no check,TRUE,,63,63,
643.7,bRMS,22,125027,,,,0,P,400,1,FALSE,0,Windows 10,Chrome 100 (100.0.4896.60),FALSE,no check,TRUE,,63,63,
582.4000001,bRMS,23,126066,,,,0,P,400,1,FALSE,0,Windows 10,Chrome 100 (100.0.4896.60),FALSE,no check,TRUE,,63,63,
514.3,bRMS,24,127043,,,,0,P,400,1,FALSE,0,Windows 10,Chrome 100 (100.0.4896.60),FALSE,no check,TRUE,,63,63,
591.5,bRMS,25,128098,,,,0,P,400,1,FALSE,0,Windows 10,Chrome 100 (100.0.4896.60),FALSE,no check,TRUE,,63,63,
524.1000001,bRMS,26,129090,,,,1,Q,400,1,FALSE,0,Windows 10,Chrome 100 (100.0.4896.60),FALSE,no check,TRUE,,63,63,
517.6000001,bRMS,27,130066,,,,1,Q,400,1,FALSE,0,Windows 10,Chrome 100 (100.0.4896.60),FALSE,no check,TRUE,,63,63,
514.2,bRMS,28,131044,,,,0,P,400,1,FALSE,0,Windows 10,Chrome 100 (100.0.4896.60),FALSE,no check,TRUE,,63,63,
677.2,bRMS,29,132178,,,,0,P,400,1,FALSE,0,Windows 10,Chrome 100 (100.0.4896.60),FALSE,no check,TRUE,,63,63,
488.7,bRMS,30,133138,,,,0,P,400,1,FALSE,0,Windows 10,Chrome 100 (100.0.4896.60),FALSE,no check,TRUE,,63,63,
493.3,bRMS,31,134082,,,,1,Q,400,1,FALSE,0,Windows 10,Chrome 100 (100.0.4896.60),FALSE,no check,TRUE,,63,63,
743,bRMS,32,135282,,,,1,Q,400,1,FALSE,0,Windows 10,Chrome 100 (100.0.4896.60),FALSE,no check,TRUE,,63,63,
477.8,bRMS,33,136225,,,,0,P,400,1,FALSE,0,Windows 10,Chrome 100 (100.0.4896.60),FALSE,no check,TRUE,,63,63,
460.1000001,bRMS,34,137154,,,,1,Q,400,1,FALSE,0,Windows 10,Chrome 100 (100.0.4896.60),FALSE,no check,TRUE,,63,63,
559.5,bRMS,35,138178,,,,1,Q,400,1,FALSE,0,Windows 10,Chrome 100 (100.0.4896.60),FALSE,no check,TRUE,,63,63,
555.2,bRMS,36,139218,,,,0,P,400,1,FALSE,0,Windows 10,Chrome 100 (100.0.4896.60),FALSE,no check,TRUE,,63,63,
543.3000002,bRMS,37,140227,,,,0,P,400,1,FALSE,0,Windows 10,Chrome 100 (100.0.4896.60),FALSE,no check,TRUE,,63,63,
591.6999998,bRMS,38,141282,,,,0,P,400,1,FALSE,0,Windows 10,Chrome 100 (100.0.4896.60),FALSE,no check,TRUE,,63,63,
493.8,bRMS,39,142242,,,,1,Q,400,1,FALSE,0,Windows 10,Chrome 100 (100.0.4896.60),FALSE,no check,TRUE,,63,63,
522.3999999,bRMS,40,143234,,,,1,Q,400,1,FALSE,0,Windows 10,Chrome 100 (100.0.4896.60),FALSE,no check,TRUE,,63,63,
514.3,bRMS,41,144211,,,,1,Q,400,1,FALSE,0,Windows 10,Chrome 100 (100.0.4896.60),FALSE,no check,TRUE,,63,63,
605,bRMS,42,145282,,,,1,Q,400,1,FALSE,0,Windows 10,Chrome 100 (100.0.4896.60),FALSE,no check,TRUE,,63,63,
581.8999999,bRMS,43,146322,,,,0,P,400,1,FALSE,0,Windows 10,Chrome 100 (100.0.4896.60),FALSE,no check,TRUE,,63,63,
477.7,bRMS,44,147266,,,,0,P,400,1,FALSE,0,Windows 10,Chrome 100 (100.0.4896.60),FALSE,no check,TRUE,,63,63,
479.7,bRMS,45,148210,,,,0,P,400,1,FALSE,0,Windows 10,Chrome 100 (100.0.4896.60),FALSE,no check,TRUE,,63,63,
607.3999999,bRMS,46,149283,,,,0,P,400,1,FALSE,0,Windows 10,Chrome 100 (100.0.4896.60),FALSE,no check,TRUE,,63,63,
492,bRMS,47,150243,,,,1,Q,400,1,FALSE,0,Windows 10,Chrome 100 (100.0.4896.60),FALSE,no check,TRUE,,63,63,
473.5999999,bRMS,48,151186,,,,0,P,400,1,FALSE,0,Windows 10,Chrome 100 (100.0.4896.60),FALSE,no check,TRUE,,63,63,
574.2,bRMS,49,152226,,,,1,Q,400,1,FALSE,0,Windows 10,Chrome 100 (100.0.4896.60),FALSE,no check,TRUE,,63,63,
447.2,bRMS,50,153139,,,,0,P,400,1,FALSE,0,Windows 10,Chrome 100 (100.0.4896.60),FALSE,no check,TRUE,,63,63,
573.7,bRMS,51,154178,,,,0,P,400,1,FALSE,0,Windows 10,Chrome 100 (100.0.4896.60),FALSE,no check,TRUE,,63,63,
639.1999998,bRMS,52,155283,,,,0,P,400,1,FALSE,0,Windows 10,Chrome 100 (100.0.4896.60),FALSE,no check,TRUE,,63,63,
469.3999999,bRMS,53,156210,,,,0,P,400,1,FALSE,0,Windows 10,Chrome 100 (100.0.4896.60),FALSE,no check,TRUE,,63,63,
473,bRMS,54,157154,,,,0,P,400,1,FALSE,0,Windows 10,Chrome 100 (100.0.4896.60),FALSE,no check,TRUE,,63,63,
529.1999998,bRMS,55,158147,,,,1,Q,400,1,FALSE,0,Windows 10,Chrome 100 (100.0.4896.60),FALSE,no check,TRUE,,63,63,
446.3,bRMS,56,159059,,,,0,P,400,1,FALSE,0,Windows 10,Chrome 100 (100.0.4896.60),FALSE,no check,TRUE,,63,63,
535,bRMS,57,160050,,,,0,P,400,1,FALSE,0,Windows 10,Chrome 100 (100.0.4896.60),FALSE,no check,TRUE,,63,63,
544.0999999,bRMS,58,161058,,,,0,P,400,1,FALSE,0,Windows 10,Chrome 100 (100.0.4896.60),FALSE,no check,TRUE,,63,63,
490.6999998,bRMS,59,162002,,,,0,P,400,1,FALSE,0,Windows 10,Chrome 100 (100.0.4896.60),FALSE,no check,TRUE,,63,63,
573.8,bRMS,60,163042,,,,1,Q,400,1,FALSE,0,Windows 10,Chrome 100 (100.0.4896.60),FALSE,no check,TRUE,,63,63,
810.9000001,bRMS,61,164322,,,,1,Q,400,1,FALSE,0,Windows 10,Chrome 100 (100.0.4896.60),FALSE,no check,TRUE,,63,63,
565.6000001,bRMS,62,165347,,,,1,Q,400,1,FALSE,0,Windows 10,Chrome 100 (100.0.4896.60),FALSE,no check,TRUE,,63,63,
526.5,bRMS,63,166338,,,,0,P,400,1,FALSE,0,Windows 10,Chrome 100 (100.0.4896.60),FALSE,no check,TRUE,,63,63,
546.2,bRMS,64,167346,,,,1,Q,400,1,FALSE,0,Windows 10,Chrome 100 (100.0.4896.60),FALSE,no check,TRUE,,63,63,
700.4000001,bRMS,65,168514,,,,1,Q,400,1,FALSE,0,Windows 10,Chrome 100 (100.0.4896.60),FALSE,no check,TRUE,,63,63,
633,bRMS,66,169619,,,,1,Q,400,1,FALSE,0,Windows 10,Chrome 100 (100.0.4896.60),FALSE,no check,TRUE,,63,63,
1213.1,bRMS,67,171298,,,,1,Q,400,1,FALSE,0,Windows 10,Chrome 100 (100.0.4896.60),FALSE,no check,TRUE,,63,63,
651.8,bRMS,68,172419,,,,0,P,400,1,FALSE,0,Windows 10,Chrome 100 (100.0.4896.60),FALSE,no check,TRUE,,63,63,
813.8,bRMS,69,173699,,,,0,P,400,1,FALSE,0,Windows 10,Chrome 100 (100.0.4896.60),FALSE,no check,TRUE,,63,63,
817.8,bRMS,70,174978,,,,0,P,400,1,FALSE,0,Windows 10,Chrome 100 (100.0.4896.60),FALSE,no check,TRUE,,63,63,
576.5,bRMS,71,176019,,,,1,Q,400,1,FALSE,0,Windows 10,Chrome 100 (100.0.4896.60),FALSE,no check,TRUE,,63,63,
759.0999999,bRMS,72,177234,,,,0,P,400,1,FALSE,0,Windows 10,Chrome 100 (100.0.4896.60),FALSE,no check,TRUE,,63,63,
635.5999999,bRMS,73,178338,,,,0,P,400,1,FALSE,0,Windows 10,Chrome 100 (100.0.4896.60),FALSE,no check,TRUE,,63,63,
618.3999999,bRMS,74,179427,,,,1,Q,400,1,FALSE,0,Windows 10,Chrome 100 (100.0.4896.60),FALSE,no check,TRUE,,63,63,
553.4000001,bRMS,75,180450,,,,0,P,400,1,FALSE,0,Windows 10,Chrome 100 (100.0.4896.60),FALSE,no check,TRUE,,63,63,
637.5999999,bRMS,76,181554,,,,0,P,400,1,FALSE,0,Windows 10,Chrome 100 (100.0.4896.60),FALSE,no check,TRUE,,63,63,
679.0999999,bRMS,77,182691,,,,0,P,400,1,FALSE,0,Windows 10,Chrome 100 (100.0.4896.60),FALSE,no check,TRUE,,63,63,
786,bRMS,78,183939,,,,0,P,400,1,FALSE,0,Windows 10,Chrome 100 (100.0.4896.60),FALSE,no check,TRUE,,63,63,
20059,instructions,79,204414,,,,,,,,,,,,,,,,,,
null,image-cpt,80,206122,,,training,,null,,,,,,,,,,,,,TRUE
396,image-cpt,81,208869,,,training,,32,,,,,,,,,,,,,TRUE
null,image-cpt,82,211590,,,training,,null,,,,,,,,,,,,,FALSE
416,image-cpt,83,213833,,,training,,32,,,,,,,,,,,,,FALSE
null,image-cpt,84,215574,,,training,,null,,,,,,,,,,,,,FALSE
352,image-cpt,85,218805,,,training,,32,,,,,,,,,,,,,TRUE
369,image-cpt,86,220531,,,training,,32,,,,,,,,,,,,,TRUE
323,image-cpt,87,222748,,,training,,32,,,,,,,,,,,,,TRUE
394,image-cpt,88,225482,,,training,,32,,,,,,,,,,,,,FALSE
null,image-cpt,89,227200,,,training,,null,,,,,,,,,,,,,FALSE
null,image-cpt,90,229420,,,training,,null,,,,,,,,,,,,,FALSE
null,image-cpt,91,231657,,,training,,null,,,,,,,,,,,,,FALSE
null,image-cpt,92,234883,,,training,,null,,,,,,,,,,,,,FALSE
null,image-cpt,93,238103,,,training,,null,,,,,,,,,,,,,FALSE
null,image-cpt,94,241337,,,training,,null,,,,,,,,,,,,,FALSE
414,image-cpt,95,243553,,,training,,32,,,,,,,,,,,,,TRUE
357,image-cpt,96,246785,,,training,,32,,,,,,,,,,,,,TRUE
469,image-cpt,97,249006,,,training,,32,,,,,,,,,,,,,TRUE
439,image-cpt,98,251730,,,training,,32,,,,,,,,,,,,,TRUE
null,image-cpt,99,253464,,,training,,null,,,,,,,,,,,,,FALSE
null,image-cpt,100,256703,,,training,,null,,,,,,,,,,,,,FALSE
null,image-cpt,101,259411,,,training,,null,,,,,,,,,,,,,FALSE
499,image-cpt,102,262131,,,training,,32,,,,,,,,,,,,,TRUE
5403,instructions,103,267534,,,,,,,,,,,,,,,,,,
null,image-cpt,104,269762,,,,,null,,,,,,,,,,,,,FALSE
null,image-cpt,105,273000,,,,,null,,,,,,,,,,,,,FALSE
494,image-cpt,106,274713,,,,,32,,,,,,,,,,,,,TRUE
null,image-cpt,107,277940,,,,,null,,,,,,,,,,,,,FALSE
null,image-cpt,108,280665,,,,,null,,,,,,,,,,,,,FALSE
null,image-cpt,109,283388,,,,,null,,,,,,,,,,,,,FALSE
null,image-cpt,110,285611,,,,,null,,,,,,,,,,,,,FALSE
363,image-cpt,111,288851,,,,,32,,,,,,,,,,,,,TRUE
484,image-cpt,112,291067,,,,,32,,,,,,,,,,,,,TRUE
null,image-cpt,113,293791,,,,,null,,,,,,,,,,,,,FALSE
null,image-cpt,114,297013,,,,,null,,,,,,,,,,,,,FALSE
null,image-cpt,115,299229,,,,,null,,,,,,,,,,,,,FALSE
425,image-cpt,116,301966,,,,,32,,,,,,,,,,,,,TRUE
376,image-cpt,117,304682,,,,,32,,,,,,,,,,,,,TRUE
349,image-cpt,118,306406,,,,,32,,,,,,,,,,,,,TRUE
399,image-cpt,119,308633,,,,,32,,,,,,,,,,,,,TRUE
365,image-cpt,120,310859,,,,,32,,,,,,,,,,,,,TRUE
347,image-cpt,121,313076,,,,,32,,,,,,,,,,,,,TRUE
354,image-cpt,122,315795,,,,,32,,,,,,,,,,,,,TRUE
339,image-cpt,123,319028,,,,,32,,,,,,,,,,,,,TRUE
322,image-cpt,124,320762,,,,,32,,,,,,,,,,,,,FALSE
null,image-cpt,125,323503,,,,,null,,,,,,,,,,,,,FALSE
null,image-cpt,126,325716,,,,,null,,,,,,,,,,,,,FALSE
595,image-cpt,127,328939,,,,,32,,,,,,,,,,,,,TRUE
null,image-cpt,128,331675,,,,,null,,,,,,,,,,,,,FALSE
null,image-cpt,129,334899,,,,,null,,,,,,,,,,,,,FALSE
null,image-cpt,130,337119,,,,,null,,,,,,,,,,,,,FALSE
470,image-cpt,131,339347,,,,,32,,,,,,,,,,,,,TRUE
null,image-cpt,132,341054,,,,,null,,,,,,,,,,,,,FALSE
472,image-cpt,133,342789,,,,,32,,,,,,,,,,,,,TRUE
null,image-cpt,134,345505,,,,,null,,,,,,,,,,,,,FALSE
422,image-cpt,135,347718,,,,,32,,,,,,,,,,,,,TRUE
null,image-cpt,136,350933,,,,,null,,,,,,,,,,,,,FALSE
null,image-cpt,137,353162,,,,,null,,,,,,,,,,,,,FALSE
null,image-cpt,138,356383,,,,,null,,,,,,,,,,,,,FALSE
583,image-cpt,139,358096,,,,,32,,,,,,,,,,,,,TRUE
422,image-cpt,140,360325,,,,,32,,,,,,,,,,,,,TRUE
null,image-cpt,141,362545,,,,,null,,,,,,,,,,,,,FALSE
null,image-cpt,142,364283,,,,,null,,,,,,,,,,,,,FALSE
476,image-cpt,143,367507,,,,,32,,,,,,,,,,,,,TRUE
434,image-cpt,144,370735,,,,,32,,,,,,,,,,,,,TRUE
470,image-cpt,145,372964,,,,,32,,,,,,,,,,,,,TRUE
498,image-cpt,146,374685,,,,,32,,,,,,,,,,,,,TRUE
null,image-cpt,147,377398,,,,,null,,,,,,,,,,,,,FALSE
496,image-cpt,148,379632,,,,,32,,,,,,,,,,,,,TRUE
470,image-cpt,149,382354,,,,,32,,,,,,,,,,,,,TRUE
null,image-cpt,150,384081,,,,,null,,,,,,,,,,,,,FALSE
548,image-cpt,151,385816,,,,,32,,,,,,,,,,,,,TRUE
766,image-cpt,152,389032,,,,,32,,,,,,,,,,,,,TRUE
333,image-cpt,153,391252,,,,,32,,,,,,,,,,,,,TRUE
401,image-cpt,154,392976,,,,,32,,,,,,,,,,,,,TRUE
710,image-cpt,155,396211,,,,,32,,,,,,,,,,,,,TRUE
386,image-cpt,156,397926,,,,,32,,,,,,,,,,,,,TRUE
null,image-cpt,157,400636,,,,,null,,,,,,,,,,,,,FALSE
null,image-cpt,158,402861,,,,,null,,,,,,,,,,,,,FALSE
441,image-cpt,159,404599,,,,,32,,,,,,,,,,,,,TRUE
null,image-cpt,160,406806,,,,,null,,,,,,,,,,,,,FALSE
null,image-cpt,161,409024,,,,,null,,,,,,,,,,,,,FALSE
517,image-cpt,162,412237,,,,,32,,,,,,,,,,,,,TRUE
null,image-cpt,163,414463,,,,,null,,,,,,,,,,,,,FALSE
518,image-cpt,164,417194,,,,,32,,,,,,,,,,,,,TRUE
619,image-cpt,165,420418,,,,,32,,,,,,,,,,,,,TRUE
435,image-cpt,166,422138,,,,,32,,,,,,,,,,,,,TRUE
null,image-cpt,167,425354,,,,,null,,,,,,,,,,,,,FALSE
524,image-cpt,168,428581,,,,,32,,,,,,,,,,,,,TRUE
null,image-cpt,169,431805,,,,,null,,,,,,,,,,,,,FALSE
616,image-cpt,170,434039,,,,,32,,,,,,,,,,,,,TRUE
null,image-cpt,171,437272,,,,,null,,,,,,,,,,,,,FALSE
null,image-cpt,172,439994,,,,,null,,,,,,,,,,,,,FALSE
null,image-cpt,173,442705,,,,,null,,,,,,,,,,,,,FALSE
null,image-cpt,174,445429,,,,,null,,,,,,,,,,,,,FALSE
null,image-cpt,175,448145,,,,,null,,,,,,,,,,,,,FALSE
null,image-cpt,176,451376,,,,,null,,,,,,,,,,,,,FALSE
null,image-cpt,177,453099,,,,,null,,,,,,,,,,,,,FALSE
null,image-cpt,178,455839,,,,,null,,,,,,,,,,,,,FALSE
null,image-cpt,179,458065,,,,,null,,,,,,,,,,,,,FALSE
null,image-cpt,180,459795,,,,,null,,,,,,,,,,,,,FALSE
627,image-cpt,181,462517,,,,,32,,,,,,,,,,,,,TRUE
497,image-cpt,182,464248,,,,,32,,,,,,,,,,,,,TRUE
null,image-cpt,183,467473,,,,,null,,,,,,,,,,,,,FALSE
null,image-cpt,184,470194,,,,,null,,,,,,,,,,,,,FALSE
null,image-cpt,185,473406,,,,,null,,,,,,,,,,,,,FALSE
null,image-cpt,186,476619,,,,,null,,,,,,,,,,,,,FALSE
null,image-cpt,187,478358,,,,,null,,,,,,,,,,,,,FALSE
512,image-cpt,188,480096,,,,,32,,,,,,,,,,,,,TRUE
534,image-cpt,189,481828,,,,,32,,,,,,,,,,,,,TRUE
null,image-cpt,190,484036,,,,,null,,,,,,,,,,,,,FALSE
null,image-cpt,191,485771,,,,,null,,,,,,,,,,,,,FALSE
586,image-cpt,192,488496,,,,,32,,,,,,,,,,,,,TRUE
null,image-cpt,193,491207,,,,,null,,,,,,,,,,,,,FALSE
463,image-cpt,194,493423,,,,,32,,,,,,,,,,,,,TRUE
null,image-cpt,195,496647,,,,,null,,,,,,,,,,,,,FALSE
null,image-cpt,196,499379,,,,,null,,,,,,,,,,,,,FALSE
563,image-cpt,197,501609,,,,,32,,,,,,,,,,,,,TRUE
492,image-cpt,198,504351,,,,,32,,,,,,,,,,,,,TRUE
null,image-cpt,199,506077,,,,,null,,,,,,,,,,,,,FALSE
504,image-cpt,200,507816,,,,,32,,,,,,,,,,,,,TRUE
477,image-cpt,201,510533,,,,,32,,,,,,,,,,,,,TRUE
null,image-cpt,202,512261,,,,,null,,,,,,,,,,,,,FALSE
null,image-cpt,203,514994,,,,,null,,,,,,,,,,,,,FALSE
499,image-cpt,204,516715,,,,,32,,,,,,,,,,,,,TRUE
null,image-cpt,205,519939,,,,,null,,,,,,,,,,,,,FALSE
482,image-cpt,206,522158,,,,,32,,,,,,,,,,,,,TRUE
568,image-cpt,207,524376,,,,,32,,,,,,,,,,,,,TRUE
430,image-cpt,208,527101,,,,,32,,,,,,,,,,,,,TRUE
425,image-cpt,209,528816,,,,,32,,,,,,,,,,,,,TRUE
null,image-cpt,210,532040,,,,,null,,,,,,,,,,,,,FALSE
492,image-cpt,211,535267,,,,,32,,,,,,,,,,,,,TRUE
null,image-cpt,212,538476,,,,,null,,,,,,,,,,,,,FALSE
null,image-cpt,213,541694,,,,,null,,,,,,,,,,,,,FALSE
439,image-cpt,214,543417,,,,,32,,,,,,,,,,,,,TRUE
null,image-cpt,215,545124,,,,,null,,,,,,,,,,,,,FALSE
449,image-cpt,216,547344,,,,,32,,,,,,,,,,,,,TRUE
null,image-cpt,217,549068,,,,,null,,,,,,,,,,,,,FALSE
null,image-cpt,218,552295,,,,,null,,,,,,,,,,,,,FALSE
null,image-cpt,219,554535,,,,,null,,,,,,,,,,,,,FALSE
431,image-cpt,220,556751,,,,,32,,,,,,,,,,,,,TRUE
null,image-cpt,221,559981,,,,,null,,,,,,,,,,,,,FALSE
null,image-cpt,222,562217,,,,,null,,,,,,,,,,,,,FALSE
null,image-cpt,223,563937,,,,,null,,,,,,,,,,,,,FALSE
612,image-cpt,224,566656,,,,,32,,,,,,,,,,,,,TRUE
null,image-cpt,225,568388,,,,,null,,,,,,,,,,,,,FALSE
null,image-cpt,226,571109,,,,,null,,,,,,,,,,,,,FALSE
null,image-cpt,227,573333,,,,,null,,,,,,,,,,,,,FALSE
577,image-cpt,228,575049,,,,,32,,,,,,,,,,,,,TRUE
492,image-cpt,229,577789,,,,,32,,,,,,,,,,,,,TRUE
457,image-cpt,230,580013,,,,,32,,,,,,,,,,,,,TRUE
null,image-cpt,231,582741,,,,,null,,,,,,,,,,,,,FALSE
null,image-cpt,232,584469,,,,,null,,,,,,,,,,,,,FALSE
null,image-cpt,233,587712,,,,,null,,,,,,,,,,,,,FALSE
342,image-cpt,234,589938,,,,,32,,,,,,,,,,,,,TRUE
null,image-cpt,235,593173,,,,,null,,,,,,,,,,,,,FALSE
369,image-cpt,236,594898,,,,,32,,,,,,,,,,,,,TRUE
null,image-cpt,237,598125,,,,,null,,,,,,,,,,,,,FALSE
456,image-cpt,238,600348,,,,,32,,,,,,,,,,,,,TRUE
null,image-cpt,239,602569,,,,,null,,,,,,,,,,,,,FALSE
476,image-cpt,240,605796,,,,,32,,,,,,,,,,,,,TRUE
null,image-cpt,241,609007,,,,,null,,,,,,,,,,,,,FALSE
503,image-cpt,242,610726,,,,,32,,,,,,,,,,,,,TRUE
null,image-cpt,243,612960,,,,,null,,,,,,,,,,,,,FALSE
470,image-cpt,244,616188,,,,,32,,,,,,,,,,,,,TRUE
570,image-cpt,245,619407,,,,,32,,,,,,,,,,,,,TRUE
null,image-cpt,246,622645,,,,,null,,,,,,,,,,,,,FALSE
null,image-cpt,247,624886,,,,,null,,,,,,,,,,,,,FALSE
528,image-cpt,248,627602,,,,,32,,,,,,,,,,,,,TRUE
null,image-cpt,249,630837,,,,,null,,,,,,,,,,,,,FALSE
561,image-cpt,250,633058,,,,,32,,,,,,,,,,,,,TRUE
547,image-cpt,251,635790,,,,,32,,,,,,,,,,,,,TRUE
null,image-cpt,252,639020,,,,,null,,,,,,,,,,,,,FALSE
505,image-cpt,253,641245,,,,,32,,,,,,,,,,,,,TRUE
488,image-cpt,254,643467,,,,,32,,,,,,,,,,,,,TRUE
395,image-cpt,255,646701,,,,,32,,,,,,,,,,,,,TRUE
null,image-cpt,256,649929,,,,,null,,,,,,,,,,,,,FALSE
null,image-cpt,257,652162,,,,,null,,,,,,,,,,,,,FALSE
451,image-cpt,258,653882,,,,,32,,,,,,,,,,,,,TRUE
null,image-cpt,259,655587,,,,,null,,,,,,,,,,,,,FALSE
402,image-cpt,260,658800,,,,,32,,,,,,,,,,,,,TRUE
390,image-cpt,261,660528,,,,,32,,,,,,,,,,,,,TRUE
534,image-cpt,262,662760,,,,,32,,,,,,,,,,,,,TRUE
null,image-cpt,263,664975,,,,,null,,,,,,,,,,,,,FALSE
null,image-cpt,264,666689,,,,,null,,,,,,,,,,,,,FALSE
null,image-cpt,265,669900,,,,,null,,,,,,,,,,,,,FALSE
null,image-cpt,266,673114,,,,,null,,,,,,,,,,,,,FALSE
475,image-cpt,267,674840,,,,,32,,,,,,,,,,,,,TRUE
446,image-cpt,268,678062,,,,,32,,,,,,,,,,,,,TRUE
391,image-cpt,269,680281,,,,,32,,,,,,,,,,,,,TRUE
null,image-cpt,270,683011,,,,,null,,,,,,,,,,,,,FALSE
null,image-cpt,271,685745,,,,,null,,,,,,,,,,,,,FALSE
null,image-cpt,272,687977,,,,,null,,,,,,,,,,,,,FALSE
396,image-cpt,273,690702,,,,,32,,,,,,,,,,,,,TRUE
487,image-cpt,274,692933,,,,,32,,,,,,,,,,,,,TRUE
null,image-cpt,275,695658,,,,,null,,,,,,,,,,,,,FALSE
556,image-cpt,276,698396,,,,,32,,,,,,,,,,,,,TRUE
null,image-cpt,277,700626,,,,,null,,,,,,,,,,,,,FALSE
null,image-cpt,278,703337,,,,,null,,,,,,,,,,,,,FALSE
null,image-cpt,279,705558,,,,,null,,,,,,,,,,,,,FALSE
511,image-cpt,280,708768,,,,,32,,,,,,,,,,,,,TRUE
374,image-cpt,281,711493,,,,,32,,,,,,,,,,,,,TRUE
400,image-cpt,282,714218,,,,,32,,,,,,,,,,,,,TRUE
null,image-cpt,283,717433,,,,,null,,,,,,,,,,,,,FALSE
428,image-cpt,284,720656,,,,,32,,,,,,,,,,,,,TRUE
389,image-cpt,285,722903,,,,,32,,,,,,,,,,,,,TRUE
null,image-cpt,286,726130,,,,,null,,,,,,,,,,,,,FALSE
null,image-cpt,287,728842,,,,,null,,,,,,,,,,,,,FALSE
null,image-cpt,288,731559,,,,,null,,,,,,,,,,,,,FALSE
511,image-cpt,289,734287,,,,,32,,,,,,,,,,,,,TRUE
406,image-cpt,290,736012,,,,,32,,,,,,,,,,,,,TRUE
null,image-cpt,291,737733,,,,,null,,,,,,,,,,,,,FALSE
433,image-cpt,292,739448,,,,,32,,,,,,,,,,,,,TRUE
null,image-cpt,293,742666,,,,,null,,,,,,,,,,,,,FALSE
539,image-cpt,294,745395,,,,,32,,,,,,,,,,,,,TRUE
null,image-cpt,295,748123,,,,,null,,,,,,,,,,,,,FALSE
442,image-cpt,296,749835,,,,,32,,,,,,,,,,,,,TRUE
null,image-cpt,297,752563,,,,,null,,,,,,,,,,,,,FALSE
482,image-cpt,298,755784,,,,,32,,,,,,,,,,,,,TRUE
null,image-cpt,299,758494,,,,,null,,,,,,,,,,,,,FALSE
null,image-cpt,300,761215,,,,,null,,,,,,,,,,,,,FALSE
null,image-cpt,301,764434,,,,,null,,,,,,,,,,,,,FALSE
null,image-cpt,302,767162,,,,,null,,,,,,,,,,,,,FALSE
null,image-cpt,303,769388,,,,,null,,,,,,,,,,,,,FALSE
null,image-cpt,304,771118,,,,,null,,,,,,,,,,,,,FALSE
519,image-cpt,305,774335,,,,,32,,,,,,,,,,,,,TRUE
null,image-cpt,306,776565,,,,,null,,,,,,,,,,,,,FALSE
null,image-cpt,307,779797,,,,,null,,,,,,,,,,,,,FALSE
null,image-cpt,308,781525,,,,,null,,,,,,,,,,,,,FALSE
577,image-cpt,309,783742,,,,,32,,,,,,,,,,,,,TRUE
440,image-cpt,310,786960,,,,,32,,,,,,,,,,,,,TRUE
null,image-cpt,311,788681,,,,,null,,,,,,,,,,,,,FALSE
396,image-cpt,312,790894,,,,,32,,,,,,,,,,,,,TRUE
null,image-cpt,313,793115,,,,,null,,,,,,,,,,,,,FALSE
null,image-cpt,314,795819,,,,,null,,,,,,,,,,,,,FALSE
null,image-cpt,315,798031,,,,,null,,,,,,,,,,,,,FALSE
4277,instructions,316,802310,,,,,,,,,,,,,,,,,,
17607,survey-likert,317,819918,"{""Q0"":1,""Q1"":2,""Q2"":2}",,,,,,,,,,,,,,,,,
12439,survey-likert,318,832358,"{""Q0"":3,""Q1"":0,""Q2"":1}",,,,,,,,,,,,,,,,,
12167,survey-likert,319,844526,"{""Q0"":1,""Q1"":3,""Q2"":3}",,,,,,,,,,,,,,,,,
11151,survey-likert,320,855677,"{""Q0"":0,""Q1"":0,""Q2"":1}",,,,,,,,,,,,,,,,,
19095,survey-likert,321,874774,"{""Q0"":2,""Q1"":0,""Q2"":1}",,,,,,,,,,,,,,,,,
10583,survey-likert,322,885357,"{""Q0"":1,""Q1"":1,""Q2"":1}",,,,,,,,,,,,,,,,,
9559,survey-likert,323,894917,"{""Q0"":0,""Q1"":1,""Q2"":1}",,,,,,,,,,,,,,,,,
9303,survey-likert,324,904221,"{""Q0"":1,""Q1"":1,""Q2"":0}",,,,,,,,,,,,,,,,,
14495,survey-likert,325,918717,"{""Q0"":1,""Q1"":1,""Q2"":1}",,,,,,,,,,,,,,,,,
43127,survey-likert,326,961845,"{""Q0"":3,""Q1"":3,""Q2"":0}",,,,,,,,,,,,,,,,,
5296,instructions,327,967141,,,,,,,,,,,,,,,,,,
13216,survey-likert,328,980357,"{""Q0"":1,""Q1"":3,""Q2"":0}",,,,,,,,,,,,,,,ASRS,,
16784,survey-likert,329,997141,"{""Q0"":1,""Q1"":1,""Q2"":1}",,,,,,,,,,,,,,,ASRS,,
26880,survey-likert,330,1024021,"{""Q0"":1,""Q1"":3,""Q2"":2}",,,,,,,,,,,,,,,ASRS,,
14264,survey-likert,331,1038285,"{""Q0"":2,""Q1"":3,""Q2"":1}",,,,,,,,,,,,,,,ASRS,,
21479,survey-likert,332,1059765,"{""Q0"":2,""Q1"":1,""Q2"":2}",,,,,,,,,,,,,,,ASRS,,
25735,survey-likert,333,1085501,"{""Q0"":2,""Q1"":1,""Q2"":1}",,,,,,,,,,,,,,,ASRS,,
5480,survey-likert,334,1090981,"{""Q0"":4}",,,,,,,,,,,,,,,,,
2591,survey-multi-choice,335,1093574,"{""Q0"":""כן""}",,,,,,,,,,,,,,,,,
38903,survey-text,336,1132477,"{""Q0"":""להתרכז במרכז המסך ולא להסתכל לצדדים""}",,,,,,,,,,,,,,,,,
5175,survey-likert,337,1137653,"{""Q0"":4}",,,,,,,,,,,,,,,,,
2263,survey-multi-choice,338,1139917,"{""Q0"":""כן""}",,,,,,,,,,,,,,,,,
12303,survey-text,339,1152221,"{""Q0"":""להסתכל במרכז המסך ולא להסתכל לצדדים""}",,,,,,,,,,,,,,,,,
7510,survey-likert,340,1159733,"{""Q0"":3}",,,,,,,,,,,,,,,,,
6047,survey-text,341,1165780,"{""Q0"":""1""}",,,,,,,,,,,,,,,,,
6319,survey-text,342,1172100,"{""Q0"":""0""}",,,,,,,,,,,,,,,,,
1920,instructions,343,1174020,,,,,,,,,,,,,,,,,,
